File: data/SEM-data_2024/artifact_surfaces/Sem-survey_artifact_002_analysis_lw_region/spectrum.emsa
#FORMAT      : EMSA/MAS Spectral Data File
#VERSION     : 1.0
#TITLE       : EDS Spectrum
#DATE        : 19-SEP-2024
#TIME        : 11:20
#OWNER       : Thermo Fisher Scientific Inc.
#NPOINTS     : 2048.
#NCOLUMNS    : 1.
#XUNITS      : eV
#YUNITS      : Counts
#DATATYPE    : Y
#XPERCHAN    : 9.933
#OFFSET      : -44.878
#XLABEL      : Energy
#YLABEL      : Counts
#SIGNALTYPE  : EDS
#BEAMKV      : 15.000
#AZIMANGLE-dg: 0.0
#ELEVANGLE-dg: 28.5
#LIVETIME    : 1272.522
#REALTIME    : 1463.155
#EDSDET      : SDUTW
##MNFWHM     : 126.3
##INSTRUMENT : MVE075582-10647-L
##SLOWTPEAK  : 0.000004000
##FASTTPEAK  : 0.000000100
##OPTICALWD  : 0.005500000
##WD         : 0.0157999
##SDDAREA    : 0.000025
##CCORR      : 260.454
##SCORR      : LIN
#SPECTRUM    : Spectral Data Starts Here
0.000
0.000
0.000
0.000
0.000
0.000
0.000
426.000
84.000
52.000
44.000
73.000
61.000
96.000
234.000
513.000
678.000
551.000
195.000
168.000
390.000
700.000
819.000
556.000
391.000
888.000
2443.000
6302.000
9701.000
7605.000
3011.000
616.000
162.000
128.000
133.000
188.000
284.000
328.000
291.000
196.000
150.000
104.000
114.000
102.000
115.000
106.000
125.000
117.000
116.000
126.000
149.000
211.000
337.000
617.000
804.000
674.000
397.000
224.000
138.000
137.000
132.000
123.000
149.000
219.000
287.000
331.000
272.000
226.000
138.000
149.000
148.000
144.000
163.000
275.000
567.000
1155.000
1922.000
1908.000
1416.000
774.000
392.000
245.000
180.000
171.000
179.000
378.000
848.000
2378.000
4785.000
6492.000
6665.000
4365.000
2116.000
937.000
477.000
300.000
211.000
118.000
84.000
71.000
73.000
77.000
90.000
85.000
79.000
110.000
95.000
77.000
69.000
67.000
60.000
70.000
65.000
58.000
55.000
77.000
73.000
86.000
76.000
81.000
74.000
75.000
70.000
63.000
60.000
68.000
49.000
58.000
65.000
71.000
62.000
63.000
79.000
77.000
82.000
82.000
68.000
62.000
49.000
47.000
38.000
52.000
54.000
60.000
52.000
61.000
63.000
51.000
60.000
48.000
56.000
69.000
62.000
46.000
59.000
42.000
52.000
60.000
43.000
42.000
55.000
51.000
63.000
65.000
72.000
87.000
128.000
174.000
231.000
222.000
201.000
133.000
98.000
53.000
56.000
53.000
54.000
53.000
43.000
54.000
55.000
56.000
57.000
78.000
73.000
88.000
92.000
106.000
116.000
99.000
82.000
50.000
46.000
44.000
38.000
40.000
38.000
42.000
33.000
40.000
41.000
45.000
52.000
48.000
46.000
52.000
47.000
45.000
32.000
38.000
27.000
39.000
38.000
34.000
36.000
33.000
40.000
34.000
42.000
32.000
42.000
36.000
34.000
25.000
35.000
45.000
44.000
64.000
57.000
60.000
54.000
41.000
40.000
35.000
37.000
34.000
37.000
36.000
36.000
37.000
29.000
19.000
35.000
25.000
33.000
36.000
34.000
31.000
24.000
31.000
40.000
37.000
26.000
20.000
18.000
21.000
32.000
28.000
24.000
22.000
21.000
32.000
28.000
23.000
28.000
18.000
26.000
27.000
24.000
19.000
23.000
23.000
28.000
24.000
29.000
34.000
33.000
26.000
26.000
25.000
24.000
27.000
20.000
26.000
16.000
23.000
20.000
26.000
20.000
29.000
28.000
19.000
20.000
11.000
26.000
16.000
25.000
12.000
22.000
30.000
24.000
29.000
19.000
25.000
27.000
17.000
16.000
19.000
20.000
21.000
27.000
21.000
22.000
15.000
19.000
17.000
19.000
26.000
20.000
43.000
58.000
92.000
112.000
141.000
141.000
152.000
137.000
90.000
63.000
49.000
31.000
32.000
11.000
17.000
18.000
19.000
17.000
21.000
8.000
19.000
11.000
21.000
20.000
17.000
16.000
17.000
17.000
25.000
16.000
15.000
13.000
17.000
20.000
23.000
20.000
30.000
33.000
37.000
43.000
30.000
16.000
32.000
20.000
21.000
11.000
15.000
15.000
10.000
16.000
10.000
14.000
12.000
21.000
20.000
16.000
11.000
13.000
8.000
11.000
14.000
5.000
7.000
17.000
15.000
12.000
10.000
6.000
11.000
14.000
14.000
21.000
12.000
16.000
16.000
16.000
9.000
15.000
5.000
12.000
16.000
8.000
12.000
13.000
8.000
14.000
13.000
9.000
9.000
9.000
9.000
8.000
10.000
13.000
12.000
10.000
9.000
7.000
12.000
12.000
10.000
7.000
10.000
10.000
12.000
11.000
12.000
13.000
13.000
15.000
12.000
11.000
13.000
9.000
15.000
11.000
11.000
8.000
11.000
12.000
9.000
14.000
10.000
7.000
6.000
10.000
7.000
11.000
11.000
6.000
5.000
8.000
8.000
7.000
6.000
4.000
5.000
11.000
8.000
9.000
10.000
8.000
10.000
9.000
3.000
13.000
10.000
4.000
9.000
9.000
9.000
10.000
7.000
4.000
5.000
11.000
10.000
6.000
6.000
8.000
10.000
10.000
10.000
4.000
7.000
7.000
7.000
4.000
5.000
5.000
6.000
6.000
4.000
2.000
11.000
11.000
7.000
9.000
5.000
12.000
6.000
9.000
10.000
3.000
4.000
8.000
4.000
8.000
6.000
2.000
1.000
12.000
9.000
3.000
10.000
8.000
2.000
7.000
5.000
4.000
9.000
9.000
6.000
4.000
9.000
8.000
1.000
7.000
7.000
9.000
1.000
6.000
8.000
5.000
11.000
2.000
6.000
3.000
4.000
5.000
5.000
5.000
4.000
5.000
5.000
8.000
9.000
2.000
4.000
3.000
3.000
3.000
4.000
3.000
5.000
5.000
4.000
5.000
5.000
3.000
5.000
4.000
3.000
3.000
3.000
1.000
4.000
6.000
4.000
2.000
3.000
6.000
3.000
4.000
4.000
3.000
5.000
2.000
7.000
4.000
3.000
4.000
4.000
3.000
2.000
4.000
2.000
3.000
1.000
4.000
3.000
4.000
2.000
4.000
4.000
4.000
1.000
0.000
3.000
2.000
3.000
3.000
4.000
3.000
2.000
2.000
4.000
7.000
4.000
3.000
2.000
5.000
2.000
3.000
6.000
1.000
1.000
2.000
5.000
3.000
1.000
3.000
2.000
5.000
1.000
3.000
3.000
1.000
1.000
1.000
0.000
4.000
3.000
1.000
0.000
2.000
1.000
0.000
2.000
2.000
4.000
3.000
3.000
2.000
2.000
1.000
4.000
5.000
3.000
3.000
2.000
5.000
1.000
2.000
4.000
2.000
1.000
1.000
0.000
1.000
1.000
2.000
1.000
1.000
0.000
3.000
1.000
3.000
1.000
2.000
0.000
0.000
1.000
1.000
1.000
0.000
2.000
2.000
0.000
0.000
0.000
1.000
2.000
0.000
0.000
0.000
0.000
2.000
0.000
2.000
1.000
0.000
2.000
0.000
1.000
1.000
2.000
1.000
3.000
0.000
0.000
0.000
1.000
1.000
1.000
2.000
0.000
0.000
1.000
0.000
5.000
2.000
1.000
0.000
1.000
0.000
0.000
1.000
1.000
0.000
0.000
0.000
0.000
0.000
1.000
0.000
0.000
0.000
0.000
1.000
0.000
0.000
0.000
1.000
0.000
0.000
0.000
0.000
0.000
0.000
0.000
0.000
0.000
0.000
0.000
0.000
0.000
0.000
0.000
0.000
1.000
0.000
0.000
0.000
0.000
0.000
0.000
0.000
0.000
0.000
0.000
0.000
0.000
0.000
0.000
0.000
0.000
0.000
0.000
0.000
0.000
0.000
0.000
0.000
0.000
0.000
0.000
0.000
0.000
0.000
0.000
0.000
0.000
0.000
0.000
0.000
0.000
0.000
0.000
0.000
0.000
0.000
0.000
0.000
0.000
0.000
0.000
0.000
0.000
0.000
0.000
0.000
0.000
0.000
1.000
0.000
0.000
0.000
0.000
0.000
0.000
0.000
0.000
0.000
0.000
0.000
0.000
0.000
0.000
0.000
0.000
0.000
0.000
0.000
0.000
0.000
0.000
0.000
0.000
0.000
0.000
0.000
0.000
0.000
0.000
0.000
0.000
0.000
0.000
0.000
0.000
0.000
0.000
0.000
0.000
0.000
0.000
0.000
0.000
0.000
0.000
0.000
0.000
0.000
0.000
0.000
0.000
0.000
0.000
0.000
0.000
0.000
0.000
0.000
0.000
0.000
0.000
0.000
0.000
0.000
0.000
0.000
0.000
0.000
0.000
0.000
0.000
0.000
0.000
0.000
0.000
0.000
0.000
0.000
0.000
0.000
0.000
0.000
0.000
0.000
0.000
0.000
0.000
0.000
0.000
0.000
0.000
0.000
0.000
0.000
0.000
0.000
0.000
0.000
0.000
0.000
0.000
0.000
0.000
0.000
0.000
0.000
0.000
0.000
0.000
0.000
0.000
0.000
0.000
0.000
0.000
0.000
0.000
0.000
0.000
0.000
0.000
0.000
0.000
0.000
0.000
0.000
0.000
0.000
0.000
0.000
0.000
0.000
0.000
0.000
0.000
0.000
0.000
0.000
0.000
0.000
0.000
0.000
0.000
0.000
0.000
0.000
0.000
0.000
0.000
0.000
0.000
0.000
0.000
0.000
0.000
0.000
0.000
0.000
0.000
0.000
0.000
0.000
0.000
0.000
0.000
0.000
0.000
0.000
0.000
0.000
0.000
0.000
0.000
0.000
0.000
0.000
0.000
0.000
0.000
0.000
0.000
0.000
0.000
0.000
0.000
0.000
0.000
0.000
0.000
0.000
0.000
0.000
0.000
0.000
0.000
0.000
0.000
0.000
0.000
0.000
0.000
0.000
0.000
0.000
0.000
0.000
0.000
0.000
0.000
0.000
0.000
0.000
0.000
0.000
0.000
0.000
0.000
0.000
0.000
0.000
#ENDOFDATA   :