File: data/SEM-data_2024/artifact_surfaces/P2-791_artifact_002_analysis_mw_region/spectrum.emsa
#FORMAT      : EMSA/MAS Spectral Data File
#VERSION     : 1.0
#TITLE       : EDS Spectrum
#DATE        : 19-SEP-2024
#TIME        : 11:20
#OWNER       : Thermo Fisher Scientific Inc.
#NPOINTS     : 2048.
#NCOLUMNS    : 1.
#XUNITS      : eV
#YUNITS      : Counts
#DATATYPE    : Y
#XPERCHAN    : 9.933
#OFFSET      : -44.878
#XLABEL      : Energy
#YLABEL      : Counts
#SIGNALTYPE  : EDS
#BEAMKV      : 15.000
#AZIMANGLE-dg: 0.0
#ELEVANGLE-dg: 28.5
#LIVETIME    : 201.261
#REALTIME    : 236.160
#EDSDET      : SDUTW
##MNFWHM     : 126.3
##INSTRUMENT : MVE075582-10647-L
##SLOWTPEAK  : 0.000004000
##FASTTPEAK  : 0.000000100
##OPTICALWD  : 0.005500000
##WD         : 0.0148724
##SDDAREA    : 0.000025
##CCORR      : 260.454
##SCORR      : LIN
#SPECTRUM    : Spectral Data Starts Here
0.000
0.000
0.000
0.000
0.000
0.000
0.000
100.000
66.000
34.000
58.000
52.000
57.000
100.000
242.000
494.000
730.000
533.000
214.000
153.000
176.000
219.000
309.000
260.000
363.000
739.000
2355.000
6183.000
9478.000
7504.000
2920.000
619.000
152.000
138.000
136.000
178.000
282.000
374.000
328.000
223.000
137.000
101.000
92.000
89.000
83.000
97.000
101.000
130.000
123.000
136.000
152.000
210.000
409.000
747.000
1031.000
918.000
529.000
210.000
127.000
108.000
122.000
102.000
124.000
192.000
196.000
237.000
212.000
198.000
147.000
148.000
153.000
138.000
152.000
263.000
525.000
997.000
1581.000
1778.000
1260.000
708.000
348.000
226.000
176.000
162.000
206.000
391.000
982.000
2568.000
5345.000
7359.000
7126.000
4904.000
2400.000
1040.000
523.000
351.000
186.000
141.000
103.000
92.000
87.000
102.000
117.000
110.000
112.000
102.000
87.000
83.000
69.000
59.000
62.000
72.000
73.000
80.000
69.000
79.000
74.000
78.000
78.000
80.000
76.000
77.000
63.000
84.000
58.000
68.000
66.000
60.000
71.000
81.000
65.000
65.000
80.000
78.000
85.000
91.000
59.000
64.000
64.000
43.000
62.000
62.000
56.000
50.000
61.000
57.000
50.000
49.000
54.000
63.000
46.000
57.000
54.000
70.000
60.000
54.000
56.000
40.000
49.000
47.000
55.000
64.000
43.000
48.000
66.000
66.000
75.000
83.000
96.000
105.000
107.000
75.000
68.000
49.000
46.000
44.000
49.000
40.000
41.000
37.000
60.000
42.000
43.000
41.000
69.000
53.000
83.000
70.000
69.000
66.000
56.000
64.000
46.000
51.000
42.000
40.000
53.000
46.000
31.000
28.000
43.000
47.000
44.000
44.000
39.000
36.000
39.000
37.000
34.000
49.000
36.000
34.000
47.000
45.000
49.000
44.000
36.000
40.000
43.000
30.000
49.000
28.000
34.000
37.000
41.000
42.000
51.000
49.000
56.000
66.000
57.000
44.000
42.000
48.000
33.000
35.000
28.000
29.000
35.000
36.000
35.000
30.000
37.000
34.000
22.000
24.000
27.000
32.000
33.000
28.000
26.000
35.000
38.000
26.000
27.000
32.000
33.000
28.000
30.000
23.000
34.000
26.000
18.000
18.000
20.000
13.000
23.000
30.000
28.000
23.000
25.000
27.000
32.000
25.000
27.000
26.000
24.000
26.000
29.000
20.000
20.000
22.000
30.000
17.000
26.000
21.000
22.000
26.000
22.000
24.000
19.000
16.000
32.000
18.000
30.000
29.000
23.000
27.000
30.000
27.000
25.000
20.000
35.000
20.000
26.000
16.000
22.000
25.000
16.000
27.000
25.000
19.000
18.000
22.000
19.000
23.000
19.000
35.000
41.000
41.000
87.000
144.000
162.000
187.000
202.000
194.000
168.000
124.000
93.000
60.000
33.000
27.000
24.000
17.000
22.000
15.000
19.000
17.000
16.000
18.000
21.000
16.000
14.000
17.000
12.000
18.000
21.000
13.000
20.000
19.000
15.000
18.000
24.000
23.000
29.000
29.000
35.000
40.000
31.000
35.000
30.000
21.000
22.000
20.000
21.000
18.000
12.000
14.000
16.000
13.000
14.000
20.000
18.000
10.000
15.000
19.000
13.000
14.000
19.000
14.000
11.000
15.000
16.000
11.000
19.000
12.000
15.000
15.000
16.000
6.000
11.000
13.000
14.000
18.000
11.000
11.000
17.000
16.000
12.000
14.000
12.000
13.000
7.000
9.000
15.000
18.000
13.000
17.000
13.000
17.000
10.000
17.000
11.000
9.000
12.000
16.000
9.000
8.000
7.000
11.000
11.000
10.000
10.000
16.000
7.000
12.000
14.000
13.000
8.000
3.000
7.000
9.000
13.000
8.000
15.000
14.000
11.000
8.000
14.000
11.000
7.000
5.000
8.000
17.000
13.000
5.000
7.000
15.000
11.000
8.000
10.000
8.000
12.000
7.000
10.000
6.000
15.000
4.000
9.000
12.000
9.000
13.000
3.000
10.000
11.000
11.000
3.000
5.000
11.000
8.000
13.000
7.000
11.000
3.000
9.000
10.000
14.000
8.000
7.000
8.000
10.000
8.000
9.000
3.000
3.000
6.000
12.000
14.000
6.000
6.000
8.000
6.000
6.000
8.000
5.000
9.000
11.000
4.000
6.000
8.000
1.000
5.000
7.000
11.000
5.000
8.000
5.000
3.000
5.000
6.000
9.000
5.000
13.000
9.000
7.000
5.000
6.000
6.000
6.000
3.000
4.000
4.000
8.000
11.000
4.000
5.000
6.000
3.000
6.000
5.000
9.000
3.000
5.000
5.000
7.000
6.000
4.000
4.000
5.000
8.000
7.000
6.000
6.000
4.000
4.000
6.000
1.000
4.000
5.000
7.000
4.000
3.000
3.000
5.000
2.000
2.000
3.000
1.000
2.000
3.000
5.000
3.000
3.000
4.000
3.000
3.000
3.000
2.000
3.000
8.000
5.000
2.000
4.000
5.000
2.000
4.000
2.000
2.000
4.000
4.000
0.000
6.000
2.000
3.000
3.000
3.000
3.000
5.000
0.000
3.000
5.000
4.000
1.000
3.000
4.000
1.000
2.000
2.000
2.000
5.000
2.000
2.000
2.000
1.000
7.000
5.000
1.000
7.000
2.000
1.000
3.000
1.000
1.000
4.000
0.000
3.000
3.000
5.000
4.000
1.000
2.000
2.000
3.000
3.000
1.000
2.000
2.000
1.000
1.000
7.000
0.000
2.000
0.000
2.000
0.000
4.000
0.000
1.000
1.000
3.000
0.000
1.000
3.000
4.000
1.000
1.000
0.000
1.000
1.000
4.000
4.000
1.000
2.000
0.000
0.000
1.000
1.000
2.000
2.000
1.000
1.000
3.000
2.000
0.000
0.000
1.000
4.000
1.000
3.000
1.000
1.000
0.000
1.000
1.000
2.000
1.000
0.000
1.000
0.000
2.000
0.000
0.000
0.000
1.000
2.000
1.000
1.000
0.000
0.000
2.000
2.000
2.000
0.000
0.000
1.000
1.000
0.000
2.000
2.000
1.000
0.000
0.000
1.000
0.000
0.000
0.000
0.000
0.000
0.000
0.000
0.000
1.000
1.000
0.000
1.000
1.000
0.000
2.000
0.000
0.000
0.000
0.000
0.000
1.000
0.000
0.000
0.000
0.000
0.000
1.000
0.000
0.000
0.000
0.000
0.000
1.000
0.000
1.000
0.000
0.000
0.000
0.000
0.000
0.000
0.000
0.000
0.000
0.000
0.000
0.000
0.000
0.000
0.000
0.000
0.000
0.000
0.000
0.000
0.000
0.000
0.000
0.000
0.000
0.000
0.000
0.000
0.000
0.000
0.000
0.000
0.000
0.000
0.000
0.000
0.000
0.000
0.000
0.000
0.000
0.000
0.000
0.000
0.000
0.000
0.000
0.000
0.000
0.000
0.000
0.000
0.000
0.000
0.000
0.000
0.000
0.000
0.000
0.000
0.000
0.000
0.000
0.000
0.000
0.000
0.000
0.000
0.000
0.000
0.000
0.000
0.000
0.000
0.000
0.000
0.000
0.000
0.000
0.000
0.000
0.000
0.000
0.000
0.000
0.000
0.000
0.000
0.000
0.000
0.000
0.000
0.000
0.000
0.000
0.000
0.000
0.000
0.000
0.000
0.000
0.000
0.000
0.000
0.000
0.000
0.000
0.000
0.000
0.000
0.000
0.000
0.000
0.000
0.000
0.000
0.000
0.000
0.000
0.000
0.000
0.000
0.000
0.000
0.000
0.000
0.000
0.000
0.000
0.000
0.000
0.000
0.000
0.000
0.000
0.000
0.000
0.000
0.000
0.000
0.000
0.000
0.000
0.000
0.000
0.000
0.000
0.000
0.000
0.000
0.000
0.000
0.000
0.000
0.000
0.000
0.000
0.000
0.000
0.000
0.000
0.000
0.000
0.000
0.000
0.000
0.000
0.000
0.000
0.000
0.000
0.000
0.000
0.000
0.000
0.000
0.000
0.000
0.000
0.000
0.000
0.000
0.000
0.000
0.000
0.000
0.000
0.000
0.000
0.000
0.000
0.000
0.000
0.000
0.000
0.000
0.000
0.000
0.000
0.000
0.000
0.000
0.000
0.000
0.000
0.000
0.000
0.000
0.000
0.000
0.000
0.000
0.000
0.000
0.000
0.000
0.000
0.000
0.000
0.000
0.000
0.000
0.000
0.000
0.000
0.000
0.000
0.000
0.000
0.000
0.000
0.000
0.000
0.000
0.000
0.000
0.000
0.000
0.000
0.000
0.000
0.000
0.000
0.000
0.000
0.000
0.000
0.000
0.000
0.000
0.000
0.000
0.000
0.000
0.000
0.000
0.000
0.000
0.000
0.000
0.000
0.000
0.000
0.000
0.000
0.000
0.000
0.000
0.000
0.000
0.000
0.000
0.000
0.000
0.000
0.000
0.000
0.000
0.000
0.000
0.000
0.000
0.000
0.000
0.000
0.000
0.000
#ENDOFDATA   :