File: data/SEM-data_2024/artifact_surfaces/P1-495_artifact_001_analysis_lw_region/spectrum.emsa
#FORMAT      : EMSA/MAS Spectral Data File
#VERSION     : 1.0
#TITLE       : EDS Spectrum
#DATE        : 19-SEP-2024
#TIME        : 11:20
#OWNER       : Thermo Fisher Scientific Inc.
#NPOINTS     : 2048.
#NCOLUMNS    : 1.
#XUNITS      : eV
#YUNITS      : Counts
#DATATYPE    : Y
#XPERCHAN    : 9.933
#OFFSET      : -44.878
#XLABEL      : Energy
#YLABEL      : Counts
#SIGNALTYPE  : EDS
#BEAMKV      : 15.000
#AZIMANGLE-dg: 0.0
#ELEVANGLE-dg: 28.5
#LIVETIME    : 21.200
#REALTIME    : 27.392
#EDSDET      : SDUTW
##MNFWHM     : 126.3
##INSTRUMENT : MVE075582-10647-L
##SLOWTPEAK  : 0.000004000
##FASTTPEAK  : 0.000000100
##OPTICALWD  : 0.005500000
##WD         : 0.008395785
##SDDAREA    : 0.000025
##CCORR      : 260.454
##SCORR      : LIN
#SPECTRUM    : Spectral Data Starts Here
0.000
0.000
0.000
0.000
0.000
0.000
0.000
112.000
84.000
56.000
53.000
49.000
59.000
84.000
217.000
461.000
563.000
427.000
232.000
144.000
168.000
210.000
251.000
266.000
388.000
1059.000
3010.000
7730.000
11864.000
9007.000
3394.000
702.000
203.000
138.000
165.000
179.000
232.000
324.000
291.000
190.000
135.000
119.000
113.000
129.000
124.000
125.000
124.000
118.000
147.000
141.000
155.000
189.000
380.000
678.000
934.000
762.000
462.000
220.000
123.000
145.000
127.000
154.000
137.000
147.000
172.000
184.000
180.000
164.000
125.000
128.000
146.000
147.000
146.000
243.000
421.000
866.000
1328.000
1323.000
943.000
534.000
253.000
210.000
172.000
171.000
192.000
350.000
972.000
2650.000
5361.000
7360.000
7155.000
4805.000
2331.000
975.000
489.000
318.000
219.000
135.000
85.000
85.000
81.000
86.000
95.000
87.000
83.000
88.000
66.000
66.000
60.000
60.000
70.000
52.000
73.000
51.000
64.000
69.000
73.000
53.000
61.000
65.000
61.000
60.000
71.000
51.000
51.000
70.000
67.000
46.000
54.000
59.000
51.000
58.000
62.000
62.000
66.000
71.000
50.000
57.000
43.000
55.000
63.000
54.000
38.000
43.000
39.000
39.000
43.000
39.000
49.000
46.000
51.000
46.000
42.000
47.000
38.000
40.000
41.000
46.000
34.000
49.000
40.000
45.000
54.000
49.000
44.000
66.000
86.000
118.000
130.000
136.000
134.000
100.000
72.000
49.000
44.000
43.000
57.000
36.000
47.000
30.000
44.000
55.000
55.000
42.000
44.000
52.000
44.000
59.000
78.000
57.000
50.000
41.000
40.000
35.000
39.000
27.000
44.000
31.000
29.000
42.000
42.000
29.000
33.000
35.000
36.000
31.000
41.000
40.000
35.000
32.000
28.000
31.000
29.000
27.000
36.000
24.000
27.000
28.000
28.000
36.000
33.000
30.000
33.000
28.000
41.000
24.000
35.000
43.000
29.000
36.000
32.000
34.000
26.000
36.000
39.000
31.000
22.000
26.000
30.000
25.000
17.000
14.000
26.000
33.000
21.000
18.000
18.000
23.000
24.000
22.000
27.000
29.000
20.000
16.000
17.000
26.000
19.000
24.000
22.000
26.000
31.000
25.000
19.000
21.000
18.000
19.000
26.000
15.000
15.000
25.000
24.000
18.000
20.000
14.000
18.000
23.000
21.000
21.000
18.000
23.000
21.000
21.000
14.000
16.000
27.000
23.000
17.000
24.000
20.000
17.000
22.000
22.000
20.000
15.000
21.000
15.000
21.000
18.000
14.000
15.000
14.000
15.000
16.000
9.000
14.000
13.000
10.000
11.000
19.000
16.000
18.000
13.000
15.000
12.000
22.000
20.000
21.000
22.000
34.000
24.000
32.000
70.000
66.000
70.000
81.000
82.000
78.000
45.000
29.000
23.000
18.000
13.000
18.000
15.000
12.000
17.000
14.000
14.000
12.000
14.000
3.000
14.000
10.000
12.000
7.000
11.000
12.000
13.000
17.000
16.000
12.000
8.000
16.000
17.000
18.000
18.000
20.000
19.000
18.000
21.000
15.000
15.000
16.000
14.000
14.000
14.000
6.000
9.000
11.000
2.000
13.000
11.000
11.000
9.000
14.000
13.000
12.000
15.000
10.000
8.000
12.000
13.000
8.000
3.000
8.000
14.000
8.000
6.000
11.000
9.000
8.000
7.000
11.000
9.000
7.000
19.000
9.000
12.000
8.000
13.000
6.000
12.000
14.000
12.000
10.000
5.000
10.000
8.000
7.000
8.000
2.000
11.000
8.000
6.000
11.000
11.000
15.000
15.000
10.000
10.000
13.000
11.000
6.000
9.000
4.000
5.000
11.000
7.000
9.000
9.000
3.000
6.000
6.000
6.000
10.000
5.000
7.000
14.000
15.000
6.000
7.000
7.000
7.000
8.000
8.000
8.000
13.000
9.000
6.000
7.000
2.000
7.000
5.000
4.000
4.000
6.000
9.000
5.000
2.000
10.000
11.000
5.000
7.000
5.000
4.000
9.000
7.000
4.000
4.000
8.000
7.000
8.000
9.000
4.000
8.000
4.000
7.000
6.000
6.000
4.000
6.000
4.000
4.000
7.000
5.000
9.000
3.000
1.000
3.000
5.000
4.000
6.000
7.000
8.000
5.000
3.000
5.000
5.000
5.000
6.000
5.000
10.000
9.000
3.000
6.000
5.000
3.000
7.000
4.000
7.000
4.000
5.000
4.000
7.000
6.000
8.000
2.000
5.000
4.000
6.000
4.000
2.000
1.000
4.000
3.000
4.000
3.000
4.000
5.000
7.000
7.000
3.000
2.000
2.000
3.000
4.000
10.000
4.000
5.000
7.000
5.000
3.000
3.000
0.000
3.000
4.000
5.000
6.000
4.000
1.000
5.000
4.000
8.000
1.000
3.000
2.000
3.000
5.000
2.000
0.000
2.000
4.000
3.000
5.000
3.000
3.000
0.000
5.000
2.000
2.000
3.000
1.000
0.000
0.000
2.000
0.000
2.000
4.000
2.000
1.000
1.000
5.000
1.000
1.000
4.000
3.000
1.000
5.000
3.000
4.000
5.000
0.000
5.000
3.000
2.000
4.000
4.000
6.000
3.000
2.000
1.000
1.000
0.000
0.000
3.000
2.000
2.000
0.000
0.000
0.000
2.000
0.000
3.000
1.000
5.000
0.000
0.000
3.000
0.000
0.000
1.000
5.000
0.000
4.000
2.000
3.000
0.000
1.000
2.000
0.000
4.000
1.000
2.000
1.000
5.000
1.000
3.000
0.000
1.000
1.000
3.000
1.000
2.000
0.000
0.000
2.000
2.000
0.000
1.000
0.000
1.000
0.000
2.000
1.000
0.000
2.000
1.000
1.000
2.000
2.000
3.000
1.000
1.000
1.000
1.000
1.000
0.000
0.000
1.000
0.000
0.000
1.000
1.000
0.000
0.000
1.000
0.000
0.000
2.000
0.000
2.000
0.000
1.000
0.000
1.000
0.000
0.000
0.000
1.000
0.000
2.000
0.000
0.000
0.000
0.000
0.000
0.000
0.000
1.000
0.000
0.000
0.000
0.000
0.000
0.000
0.000
0.000
0.000
0.000
0.000
1.000
0.000
0.000
0.000
0.000
0.000
0.000
0.000
0.000
0.000
0.000
0.000
0.000
0.000
0.000
0.000
0.000
0.000
0.000
0.000
0.000
0.000
0.000
0.000
0.000
0.000
0.000
0.000
0.000
0.000
0.000
0.000
0.000
0.000
0.000
0.000
0.000
0.000
0.000
0.000
0.000
0.000
0.000
0.000
0.000
0.000
0.000
0.000
0.000
0.000
0.000
0.000
0.000
0.000
0.000
0.000
0.000
0.000
0.000
0.000
0.000
0.000
0.000
0.000
0.000
0.000
0.000
0.000
0.000
0.000
0.000
0.000
0.000
0.000
0.000
0.000
0.000
0.000
0.000
0.000
0.000
0.000
0.000
0.000
0.000
0.000
0.000
0.000
0.000
0.000
0.000
0.000
0.000
0.000
0.000
0.000
0.000
0.000
0.000
0.000
0.000
0.000
0.000
0.000
0.000
0.000
0.000
0.000
0.000
0.000
0.000
0.000
0.000
0.000
0.000
0.000
0.000
0.000
0.000
0.000
0.000
0.000
0.000
0.000
0.000
0.000
0.000
0.000
0.000
0.000
0.000
0.000
0.000
0.000
0.000
0.000
0.000
0.000
0.000
0.000
0.000
0.000
0.000
0.000
0.000
0.000
0.000
0.000
0.000
0.000
0.000
0.000
0.000
0.000
0.000
0.000
0.000
0.000
0.000
0.000
0.000
0.000
0.000
0.000
0.000
0.000
0.000
0.000
0.000
0.000
0.000
0.000
0.000
0.000
0.000
0.000
0.000
0.000
0.000
0.000
0.000
0.000
0.000
0.000
0.000
0.000
0.000
0.000
0.000
0.000
0.000
0.000
0.000
0.000
0.000
0.000
0.000
0.000
0.000
0.000
0.000
0.000
0.000
0.000
0.000
0.000
0.000
0.000
0.000
0.000
0.000
0.000
0.000
0.000
0.000
0.000
0.000
0.000
0.000
0.000
0.000
0.000
0.000
0.000
0.000
0.000
0.000
0.000
0.000
0.000
0.000
0.000
0.000
0.000
0.000
0.000
0.000
0.000
0.000
0.000
0.000
0.000
0.000
0.000
0.000
0.000
0.000
0.000
0.000
0.000
0.000
0.000
0.000
0.000
0.000
0.000
0.000
0.000
0.000
0.000
0.000
0.000
0.000
0.000
0.000
0.000
0.000
0.000
0.000
0.000
0.000
0.000
0.000
0.000
0.000
0.000
0.000
0.000
0.000
0.000
0.000
0.000
0.000
0.000
0.000
0.000
0.000
0.000
0.000
0.000
0.000
0.000
0.000
0.000
0.000
0.000
0.000
0.000
0.000
0.000
0.000
0.000
0.000
0.000
0.000
0.000
0.000
0.000
0.000
0.000
0.000
0.000
0.000
0.000
0.000
#ENDOFDATA   :