File: data/SEM-data_2024/artifact_surfaces/P5-1962_artifact_001_analysis_lw_region/spectrum.emsa
#FORMAT      : EMSA/MAS Spectral Data File
#VERSION     : 1.0
#TITLE       : EDS Spectrum
#DATE        : 19-SEP-2024
#TIME        : 11:20
#OWNER       : Thermo Fisher Scientific Inc.
#NPOINTS     : 2048.
#NCOLUMNS    : 1.
#XUNITS      : eV
#YUNITS      : Counts
#DATATYPE    : Y
#XPERCHAN    : 9.933
#OFFSET      : -44.878
#XLABEL      : Energy
#YLABEL      : Counts
#SIGNALTYPE  : EDS
#BEAMKV      : 15.000
#AZIMANGLE-dg: 0.0
#ELEVANGLE-dg: 28.5
#LIVETIME    : 50.144
#REALTIME    : 60.392
#EDSDET      : SDUTW
##MNFWHM     : 126.3
##INSTRUMENT : MVE075582-10647-L
##SLOWTPEAK  : 0.000004000
##FASTTPEAK  : 0.000000100
##OPTICALWD  : 0.005500000
##WD         : 0.0113923
##SDDAREA    : 0.000025
##CCORR      : 260.454
##SCORR      : LIN
#SPECTRUM    : Spectral Data Starts Here
0.000
0.000
0.000
0.000
0.000
0.000
0.000
96.000
71.000
57.000
43.000
56.000
81.000
141.000
351.000
761.000
1004.000
772.000
281.000
153.000
221.000
241.000
261.000
276.000
366.000
920.000
2853.000
6871.000
10491.000
8382.000
3286.000
626.000
194.000
146.000
160.000
169.000
275.000
349.000
324.000
225.000
161.000
134.000
130.000
133.000
126.000
131.000
102.000
119.000
143.000
137.000
153.000
190.000
276.000
477.000
596.000
559.000
354.000
189.000
151.000
134.000
125.000
167.000
205.000
360.000
454.000
572.000
464.000
308.000
184.000
163.000
139.000
139.000
159.000
239.000
539.000
1063.000
1574.000
1756.000
1250.000
676.000
353.000
203.000
177.000
174.000
191.000
303.000
862.000
2344.000
4693.000
6624.000
6515.000
4258.000
2126.000
905.000
479.000
307.000
186.000
125.000
108.000
73.000
72.000
85.000
93.000
96.000
87.000
80.000
84.000
66.000
73.000
65.000
68.000
72.000
77.000
66.000
66.000
81.000
67.000
74.000
70.000
75.000
61.000
74.000
76.000
56.000
66.000
49.000
73.000
60.000
72.000
58.000
61.000
56.000
87.000
71.000
83.000
69.000
69.000
58.000
45.000
50.000
54.000
63.000
53.000
55.000
51.000
57.000
37.000
67.000
46.000
44.000
51.000
52.000
50.000
43.000
58.000
45.000
48.000
50.000
48.000
39.000
44.000
48.000
39.000
46.000
50.000
88.000
153.000
165.000
237.000
272.000
211.000
159.000
115.000
67.000
47.000
48.000
49.000
43.000
42.000
50.000
49.000
61.000
65.000
83.000
88.000
96.000
153.000
137.000
162.000
127.000
106.000
64.000
51.000
54.000
47.000
24.000
28.000
45.000
38.000
32.000
41.000
38.000
39.000
39.000
45.000
54.000
50.000
42.000
38.000
27.000
28.000
25.000
27.000
35.000
42.000
30.000
34.000
24.000
26.000
37.000
22.000
28.000
30.000
27.000
33.000
44.000
42.000
35.000
43.000
41.000
51.000
40.000
45.000
31.000
39.000
29.000
29.000
28.000
32.000
29.000
33.000
34.000
28.000
16.000
34.000
26.000
19.000
26.000
30.000
19.000
29.000
24.000
27.000
24.000
22.000
22.000
22.000
20.000
27.000
30.000
21.000
23.000
20.000
18.000
33.000
20.000
20.000
28.000
16.000
23.000
20.000
26.000
20.000
20.000
24.000
21.000
23.000
19.000
25.000
22.000
18.000
26.000
19.000
19.000
17.000
16.000
16.000
20.000
22.000
25.000
14.000
19.000
22.000
22.000
22.000
26.000
16.000
28.000
17.000
22.000
23.000
27.000
20.000
27.000
14.000
21.000
16.000
11.000
12.000
20.000
19.000
12.000
20.000
16.000
21.000
13.000
11.000
25.000
23.000
30.000
51.000
82.000
87.000
101.000
103.000
114.000
89.000
73.000
60.000
41.000
34.000
20.000
12.000
11.000
23.000
13.000
16.000
19.000
13.000
17.000
12.000
17.000
18.000
12.000
13.000
12.000
16.000
11.000
19.000
18.000
14.000
17.000
18.000
23.000
22.000
19.000
19.000
36.000
32.000
29.000
19.000
17.000
18.000
12.000
15.000
11.000
16.000
12.000
11.000
10.000
8.000
10.000
16.000
9.000
8.000
12.000
17.000
10.000
13.000
9.000
9.000
9.000
15.000
10.000
13.000
9.000
18.000
8.000
17.000
15.000
8.000
12.000
6.000
12.000
19.000
3.000
11.000
4.000
12.000
10.000
9.000
13.000
8.000
11.000
11.000
9.000
12.000
8.000
12.000
10.000
7.000
8.000
11.000
12.000
7.000
7.000
7.000
11.000
8.000
5.000
7.000
12.000
8.000
17.000
10.000
10.000
4.000
10.000
5.000
4.000
5.000
4.000
12.000
7.000
6.000
19.000
8.000
7.000
7.000
4.000
11.000
3.000
8.000
12.000
6.000
12.000
13.000
6.000
6.000
10.000
10.000
6.000
10.000
8.000
8.000
7.000
6.000
5.000
10.000
2.000
4.000
9.000
8.000
9.000
9.000
3.000
4.000
4.000
10.000
5.000
9.000
14.000
4.000
5.000
7.000
2.000
3.000
9.000
6.000
8.000
5.000
4.000
3.000
4.000
4.000
3.000
5.000
4.000
7.000
9.000
6.000
5.000
0.000
5.000
4.000
4.000
9.000
3.000
7.000
7.000
6.000
8.000
2.000
4.000
8.000
10.000
6.000
8.000
5.000
6.000
5.000
5.000
9.000
4.000
2.000
7.000
4.000
4.000
8.000
1.000
5.000
5.000
3.000
7.000
6.000
9.000
5.000
3.000
4.000
10.000
6.000
8.000
2.000
1.000
4.000
5.000
3.000
6.000
11.000
2.000
8.000
2.000
4.000
3.000
2.000
3.000
2.000
4.000
2.000
4.000
1.000
2.000
5.000
3.000
6.000
6.000
3.000
6.000
5.000
3.000
7.000
1.000
2.000
1.000
6.000
3.000
3.000
4.000
4.000
4.000
1.000
5.000
3.000
3.000
3.000
3.000
3.000
3.000
5.000
4.000
5.000
2.000
4.000
6.000
7.000
2.000
2.000
3.000
2.000
3.000
3.000
4.000
5.000
2.000
5.000
2.000
3.000
3.000
3.000
3.000
2.000
2.000
3.000
1.000
1.000
0.000
3.000
2.000
4.000
2.000
4.000
0.000
2.000
3.000
1.000
0.000
2.000
1.000
2.000
2.000
2.000
5.000
2.000
0.000
1.000
2.000
5.000
3.000
3.000
3.000
1.000
3.000
3.000
3.000
3.000
0.000
3.000
0.000
0.000
2.000
1.000
2.000
4.000
2.000
5.000
1.000
1.000
1.000
1.000
6.000
1.000
0.000
0.000
2.000
0.000
0.000
1.000
1.000
1.000
2.000
0.000
2.000
1.000
1.000
0.000
4.000
0.000
1.000
1.000
1.000
1.000
1.000
0.000
1.000
1.000
2.000
1.000
0.000
1.000
0.000
1.000
1.000
0.000
3.000
0.000
0.000
1.000
0.000
1.000
0.000
0.000
0.000
1.000
1.000
0.000
1.000
1.000
1.000
1.000
1.000
1.000
0.000
0.000
0.000
0.000
1.000
3.000
2.000
0.000
0.000
1.000
0.000
0.000
0.000
1.000
1.000
0.000
0.000
1.000
1.000
1.000
1.000
1.000
0.000
0.000
0.000
0.000
1.000
1.000
0.000
0.000
0.000
0.000
1.000
0.000
0.000
1.000
0.000
0.000
0.000
0.000
0.000
0.000
0.000
0.000
0.000
1.000
0.000
0.000
1.000
0.000
0.000
0.000
0.000
0.000
0.000
0.000
0.000
0.000
0.000
1.000
0.000
0.000
0.000
0.000
0.000
0.000
0.000
0.000
0.000
0.000
0.000
0.000
0.000
0.000
0.000
0.000
0.000
0.000
0.000
0.000
0.000
0.000
0.000
0.000
0.000
0.000
0.000
0.000
0.000
0.000
0.000
0.000
0.000
0.000
0.000
0.000
0.000
0.000
0.000
0.000
0.000
0.000
0.000
0.000
0.000
0.000
0.000
0.000
0.000
0.000
0.000
0.000
0.000
0.000
0.000
0.000
0.000
0.000
0.000
0.000
0.000
0.000
0.000
0.000
0.000
0.000
0.000
0.000
0.000
0.000
0.000
0.000
0.000
0.000
0.000
0.000
0.000
0.000
0.000
0.000
0.000
0.000
0.000
0.000
0.000
0.000
0.000
0.000
0.000
0.000
0.000
0.000
0.000
0.000
0.000
0.000
0.000
0.000
0.000
0.000
0.000
0.000
0.000
0.000
0.000
0.000
0.000
0.000
0.000
0.000
0.000
0.000
0.000
0.000
0.000
0.000
0.000
0.000
0.000
0.000
0.000
0.000
0.000
0.000
0.000
0.000
0.000
0.000
0.000
0.000
0.000
0.000
0.000
0.000
0.000
0.000
0.000
0.000
0.000
0.000
0.000
0.000
0.000
0.000
0.000
0.000
0.000
0.000
0.000
0.000
0.000
0.000
0.000
0.000
0.000
0.000
0.000
0.000
0.000
0.000
0.000
0.000
0.000
0.000
0.000
0.000
0.000
0.000
0.000
0.000
0.000
0.000
0.000
0.000
0.000
0.000
0.000
0.000
0.000
0.000
0.000
0.000
0.000
0.000
0.000
0.000
0.000
0.000
0.000
0.000
0.000
0.000
0.000
0.000
0.000
0.000
0.000
0.000
0.000
0.000
0.000
0.000
0.000
0.000
0.000
0.000
0.000
0.000
0.000
0.000
0.000
0.000
0.000
0.000
0.000
0.000
0.000
0.000
0.000
0.000
0.000
0.000
0.000
0.000
0.000
0.000
0.000
0.000
0.000
0.000
0.000
0.000
0.000
0.000
0.000
0.000
0.000
0.000
0.000
0.000
0.000
0.000
0.000
0.000
0.000
0.000
0.000
0.000
0.000
0.000
0.000
0.000
0.000
0.000
0.000
0.000
0.000
0.000
0.000
0.000
0.000
0.000
0.000
0.000
#ENDOFDATA   :