File: data/SEM-data_2024/artifact_surfaces/P5-1962_artifact_002_analysis_lw_region/spectrum.emsa
#FORMAT      : EMSA/MAS Spectral Data File
#VERSION     : 1.0
#TITLE       : EDS Spectrum
#DATE        : 19-SEP-2024
#TIME        : 11:20
#OWNER       : Thermo Fisher Scientific Inc.
#NPOINTS     : 2048.
#NCOLUMNS    : 1.
#XUNITS      : eV
#YUNITS      : Counts
#DATATYPE    : Y
#XPERCHAN    : 9.933
#OFFSET      : -44.878
#XLABEL      : Energy
#YLABEL      : Counts
#SIGNALTYPE  : EDS
#BEAMKV      : 15.000
#AZIMANGLE-dg: 0.0
#ELEVANGLE-dg: 28.5
#LIVETIME    : 46.127
#REALTIME    : 55.593
#EDSDET      : SDUTW
##MNFWHM     : 126.3
##INSTRUMENT : MVE075582-10647-L
##SLOWTPEAK  : 0.000004000
##FASTTPEAK  : 0.000000100
##OPTICALWD  : 0.005500000
##WD         : 0.011119
##SDDAREA    : 0.000025
##CCORR      : 260.454
##SCORR      : LIN
#SPECTRUM    : Spectral Data Starts Here
0.000
0.000
0.000
0.000
0.000
0.000
0.000
94.000
76.000
43.000
49.000
50.000
73.000
141.000
331.000
791.000
1089.000
751.000
276.000
153.000
220.000
264.000
265.000
272.000
376.000
880.000
2764.000
7054.000
10732.000
8463.000
3289.000
659.000
171.000
138.000
145.000
175.000
226.000
245.000
250.000
203.000
140.000
126.000
131.000
129.000
138.000
111.000
132.000
129.000
143.000
156.000
144.000
181.000
324.000
613.000
774.000
641.000
434.000
201.000
145.000
152.000
143.000
129.000
160.000
267.000
397.000
445.000
397.000
243.000
177.000
143.000
146.000
148.000
157.000
241.000
482.000
1053.000
1568.000
1648.000
1198.000
661.000
330.000
201.000
163.000
150.000
169.000
339.000
947.000
2495.000
4973.000
6921.000
6711.000
4479.000
2263.000
965.000
509.000
307.000
194.000
127.000
96.000
76.000
72.000
84.000
92.000
92.000
80.000
91.000
60.000
71.000
64.000
56.000
65.000
54.000
68.000
65.000
80.000
67.000
68.000
69.000
72.000
68.000
56.000
60.000
67.000
52.000
61.000
67.000
52.000
58.000
62.000
52.000
51.000
66.000
67.000
73.000
78.000
82.000
68.000
59.000
53.000
52.000
58.000
64.000
59.000
50.000
64.000
59.000
54.000
47.000
45.000
45.000
49.000
37.000
41.000
39.000
57.000
47.000
39.000
42.000
41.000
50.000
50.000
47.000
51.000
49.000
45.000
81.000
131.000
147.000
198.000
192.000
178.000
151.000
84.000
56.000
40.000
41.000
39.000
48.000
36.000
46.000
48.000
49.000
60.000
77.000
66.000
75.000
110.000
97.000
100.000
94.000
66.000
59.000
41.000
41.000
38.000
32.000
33.000
34.000
40.000
31.000
42.000
26.000
31.000
33.000
48.000
37.000
34.000
43.000
29.000
27.000
38.000
33.000
39.000
35.000
30.000
34.000
29.000
34.000
28.000
29.000
30.000
28.000
31.000
31.000
33.000
39.000
35.000
35.000
42.000
42.000
36.000
29.000
32.000
28.000
26.000
21.000
27.000
32.000
33.000
29.000
27.000
29.000
21.000
27.000
21.000
28.000
26.000
24.000
28.000
20.000
28.000
28.000
27.000
21.000
24.000
23.000
24.000
29.000
27.000
13.000
27.000
34.000
18.000
21.000
28.000
25.000
18.000
15.000
24.000
28.000
23.000
26.000
26.000
20.000
24.000
16.000
15.000
20.000
30.000
16.000
14.000
24.000
22.000
23.000
26.000
19.000
17.000
23.000
18.000
12.000
14.000
21.000
20.000
22.000
29.000
25.000
20.000
27.000
18.000
19.000
23.000
14.000
21.000
17.000
24.000
18.000
13.000
11.000
14.000
17.000
17.000
14.000
10.000
13.000
20.000
19.000
18.000
29.000
29.000
29.000
36.000
47.000
58.000
71.000
65.000
74.000
76.000
46.000
35.000
34.000
18.000
24.000
10.000
15.000
18.000
19.000
11.000
17.000
12.000
15.000
17.000
18.000
9.000
17.000
14.000
10.000
13.000
14.000
14.000
14.000
17.000
8.000
7.000
21.000
14.000
17.000
23.000
16.000
16.000
27.000
15.000
15.000
15.000
17.000
12.000
17.000
16.000
7.000
14.000
12.000
10.000
8.000
10.000
8.000
10.000
6.000
9.000
8.000
10.000
16.000
13.000
7.000
9.000
6.000
7.000
11.000
15.000
4.000
15.000
12.000
14.000
12.000
11.000
6.000
12.000
9.000
14.000
7.000
8.000
9.000
14.000
6.000
6.000
15.000
8.000
4.000
16.000
9.000
7.000
6.000
7.000
13.000
9.000
8.000
9.000
8.000
11.000
6.000
4.000
15.000
10.000
7.000
7.000
10.000
10.000
12.000
1.000
6.000
7.000
10.000
12.000
11.000
11.000
11.000
7.000
8.000
10.000
9.000
5.000
9.000
5.000
10.000
4.000
4.000
7.000
14.000
5.000
2.000
5.000
10.000
14.000
10.000
6.000
9.000
8.000
4.000
5.000
4.000
7.000
6.000
6.000
11.000
2.000
4.000
9.000
6.000
11.000
9.000
5.000
4.000
6.000
5.000
6.000
8.000
6.000
4.000
5.000
11.000
3.000
6.000
6.000
9.000
4.000
5.000
8.000
8.000
5.000
1.000
3.000
5.000
7.000
5.000
8.000
5.000
5.000
6.000
2.000
3.000
7.000
6.000
1.000
4.000
5.000
10.000
4.000
5.000
1.000
10.000
3.000
6.000
1.000
2.000
6.000
4.000
6.000
7.000
4.000
5.000
5.000
5.000
2.000
8.000
6.000
2.000
6.000
4.000
5.000
4.000
3.000
2.000
1.000
5.000
6.000
5.000
6.000
6.000
3.000
5.000
7.000
7.000
4.000
2.000
2.000
2.000
4.000
4.000
4.000
4.000
4.000
2.000
5.000
0.000
4.000
2.000
5.000
0.000
5.000
7.000
3.000
3.000
0.000
5.000
3.000
4.000
3.000
2.000
1.000
1.000
6.000
6.000
3.000
4.000
4.000
3.000
2.000
1.000
4.000
3.000
3.000
2.000
3.000
1.000
2.000
1.000
3.000
0.000
1.000
2.000
2.000
4.000
2.000
3.000
1.000
2.000
0.000
2.000
2.000
4.000
0.000
4.000
3.000
2.000
2.000
1.000
2.000
2.000
3.000
2.000
1.000
3.000
3.000
2.000
3.000
2.000
0.000
5.000
1.000
0.000
2.000
0.000
0.000
2.000
3.000
1.000
3.000
0.000
2.000
1.000
0.000
3.000
3.000
2.000
1.000
0.000
4.000
3.000
1.000
1.000
1.000
1.000
1.000
1.000
2.000
3.000
1.000
2.000
1.000
0.000
1.000
0.000
1.000
1.000
0.000
1.000
0.000
0.000
0.000
1.000
4.000
1.000
1.000
1.000
1.000
1.000
0.000
1.000
3.000
2.000
0.000
2.000
0.000
2.000
0.000
2.000
2.000
2.000
0.000
1.000
1.000
1.000
0.000
0.000
0.000
0.000
0.000
2.000
0.000
1.000
2.000
0.000
0.000
0.000
1.000
0.000
1.000
1.000
2.000
0.000
0.000
1.000
0.000
1.000
1.000
1.000
0.000
1.000
2.000
0.000
0.000
1.000
0.000
0.000
1.000
1.000
1.000
1.000
0.000
0.000
0.000
0.000
0.000
0.000
1.000
0.000
2.000
1.000
0.000
1.000
1.000
1.000
1.000
0.000
0.000
0.000
0.000
0.000
1.000
0.000
0.000
0.000
1.000
0.000
0.000
0.000
0.000
0.000
0.000
0.000
0.000
0.000
0.000
0.000
0.000
0.000
0.000
0.000
0.000
0.000
0.000
0.000
0.000
0.000
0.000
0.000
0.000
0.000
0.000
0.000
0.000
0.000
0.000
0.000
0.000
0.000
0.000
0.000
0.000
0.000
0.000
0.000
0.000
0.000
0.000
0.000
0.000
0.000
0.000
0.000
0.000
0.000
0.000
0.000
0.000
0.000
0.000
0.000
0.000
0.000
0.000
0.000
0.000
0.000
0.000
0.000
0.000
0.000
0.000
0.000
0.000
0.000
0.000
0.000
0.000
0.000
0.000
0.000
0.000
0.000
0.000
0.000
0.000
0.000
0.000
0.000
0.000
0.000
0.000
0.000
0.000
0.000
0.000
0.000
0.000
0.000
0.000
0.000
0.000
0.000
0.000
0.000
0.000
0.000
0.000
0.000
0.000
0.000
0.000
0.000
0.000
0.000
0.000
0.000
0.000
0.000
0.000
0.000
0.000
0.000
0.000
0.000
0.000
0.000
0.000
0.000
0.000
0.000
0.000
0.000
0.000
0.000
0.000
0.000
0.000
0.000
0.000
0.000
0.000
0.000
0.000
0.000
0.000
0.000
0.000
0.000
0.000
0.000
0.000
0.000
0.000
0.000
0.000
0.000
0.000
0.000
0.000
0.000
0.000
0.000
0.000
0.000
0.000
0.000
0.000
0.000
0.000
0.000
0.000
0.000
0.000
0.000
0.000
0.000
0.000
0.000
0.000
0.000
0.000
0.000
0.000
0.000
0.000
0.000
0.000
0.000
0.000
0.000
0.000
0.000
0.000
0.000
0.000
0.000
0.000
0.000
0.000
0.000
0.000
0.000
0.000
0.000
0.000
0.000
0.000
0.000
0.000
0.000
0.000
0.000
0.000
0.000
0.000
0.000
0.000
0.000
0.000
0.000
0.000
0.000
0.000
0.000
0.000
0.000
0.000
0.000
0.000
0.000
0.000
0.000
0.000
0.000
0.000
0.000
0.000
0.000
0.000
0.000
0.000
0.000
0.000
0.000
0.000
0.000
0.000
0.000
0.000
0.000
0.000
0.000
0.000
0.000
0.000
0.000
0.000
0.000
0.000
0.000
0.000
0.000
0.000
0.000
0.000
0.000
0.000
0.000
0.000
0.000
0.000
0.000
0.000
0.000
0.000
0.000
0.000
0.000
0.000
0.000
0.000
0.000
0.000
0.000
0.000
0.000
0.000
0.000
0.000
#ENDOFDATA   :