File: data/SEM-data_2024/cross_sections/P5-1777_medial_analysis_1_map/spectrum.emsa
#FORMAT      : EMSA/MAS Spectral Data File
#VERSION     : 1.0
#TITLE       : EDS Spectrum
#DATE        : 19-SEP-2024
#TIME        : 14:36
#OWNER       : Thermo Fisher Scientific Inc.
#NPOINTS     : 2048.
#NCOLUMNS    : 1.
#XUNITS      : eV
#YUNITS      : Counts
#DATATYPE    : Y
#XPERCHAN    : 9.903
#OFFSET      : -56.900
#XLABEL      : Energy
#YLABEL      : Counts
#SIGNALTYPE  : EDS
#BEAMKV      : 15.000
#AZIMANGLE-dg: 0.0
#ELEVANGLE-dg: 28.5
#LIVETIME    : 107.856
#REALTIME    : 117.013
#EDSDET      : SDUTW
##MNFWHM     : 129.6
##INSTRUMENT : MVE075582-10647-L
##SLOWTPEAK  : 0.000001000
##FASTTPEAK  : 0.000000100
##OPTICALWD  : 0.005500000
##WD         : 0.006056947
##SDDAREA    : 0.000025
##CCORR      : 260.454
##SCORR      : LIN
#SPECTRUM    : Spectral Data Starts Here
0.000
0.000
0.000
0.000
0.000
0.000
0.000
0.000
0.000
0.000
0.000
0.000
0.000
101.000
765.000
1532.000
2746.000
3616.000
2896.000
1732.000
1252.000
1443.000
1720.000
2032.000
2638.000
5096.000
13940.000
38301.000
82470.000
109318.000
87499.000
40169.000
11101.000
2528.000
1240.000
1130.000
1203.000
1624.000
1972.000
1839.000
1578.000
1357.000
1212.000
1189.000
1182.000
1305.000
1290.000
1357.000
1445.000
1541.000
1852.000
2131.000
3490.000
6869.000
11243.000
14448.000
12946.000
8064.000
4118.000
2288.000
1795.000
1738.000
1703.000
1872.000
2100.000
2388.000
2471.000
2511.000
2271.000
2113.000
2078.000
2090.000
2256.000
2834.000
4567.000
9183.000
17263.000
25356.000
26802.000
20911.000
12638.000
6796.000
3942.000
3145.000
2920.000
3749.000
7669.000
20767.000
50228.000
94143.000
128859.000
129093.000
95312.000
53466.000
24913.000
11960.000
6660.000
4152.000
2571.000
1638.000
1234.000
1138.000
1129.000
1229.000
1298.000
1208.000
1119.000
1064.000
1068.000
1026.000
1056.000
1062.000
1053.000
1107.000
1253.000
1433.000
1497.000
1595.000
1437.000
1347.000
1247.000
1109.000
1026.000
1030.000
974.000
1033.000
982.000
1007.000
951.000
1000.000
1077.000
953.000
1019.000
962.000
1034.000
997.000
1020.000
1054.000
959.000
947.000
950.000
1006.000
931.000
954.000
977.000
1011.000
977.000
964.000
930.000
924.000
889.000
913.000
934.000
920.000
870.000
920.000
857.000
901.000
968.000
881.000
920.000
910.000
916.000
878.000
964.000
1006.000
1014.000
1207.000
1455.000
1647.000
1792.000
1676.000
1509.000
1241.000
1079.000
944.000
1044.000
982.000
1013.000
1025.000
1000.000
1006.000
928.000
926.000
939.000
917.000
1021.000
1030.000
1113.000
1123.000
1014.000
1055.000
876.000
854.000
764.000
756.000
726.000
720.000
715.000
713.000
736.000
750.000
722.000
710.000
749.000
777.000
736.000
697.000
697.000
682.000
686.000
665.000
635.000
705.000
667.000
708.000
667.000
674.000
638.000
604.000
677.000
652.000
608.000
647.000
630.000
593.000
626.000
703.000
657.000
741.000
686.000
759.000
688.000
676.000
647.000
619.000
560.000
615.000
582.000
560.000
588.000
604.000
590.000
584.000
578.000
551.000
578.000
550.000
580.000
582.000
545.000
539.000
540.000
533.000
565.000
558.000
549.000
550.000
547.000
506.000
495.000
488.000
536.000
491.000
508.000
529.000
496.000
530.000
485.000
492.000
535.000
499.000
509.000
522.000
472.000
525.000
491.000
485.000
448.000
460.000
476.000
440.000
467.000
444.000
460.000
464.000
454.000
435.000
469.000
452.000
445.000
425.000
450.000
446.000
453.000
416.000
442.000
491.000
474.000
465.000
451.000
489.000
414.000
434.000
409.000
416.000
408.000
390.000
407.000
424.000
387.000
383.000
400.000
381.000
361.000
364.000
391.000
367.000
411.000
431.000
522.000
619.000
815.000
1007.000
1231.000
1303.000
1362.000
1387.000
1085.000
919.000
677.000
571.000
450.000
396.000
382.000
306.000
378.000
347.000
376.000
355.000
332.000
348.000
312.000
336.000
323.000
325.000
337.000
298.000
335.000
315.000
354.000
306.000
338.000
348.000
358.000
388.000
399.000
434.000
449.000
433.000
388.000
399.000
355.000
376.000
326.000
308.000
312.000
283.000
288.000
272.000
296.000
303.000
284.000
287.000
289.000
292.000
266.000
265.000
253.000
254.000
278.000
269.000
245.000
272.000
247.000
258.000
278.000
275.000
282.000
278.000
242.000
265.000
258.000
242.000
243.000
226.000
245.000
245.000
238.000
217.000
242.000
222.000
255.000
236.000
222.000
218.000
221.000
247.000
244.000
248.000
211.000
215.000
214.000
247.000
230.000
199.000
225.000
239.000
214.000
233.000
207.000
208.000
213.000
206.000
230.000
208.000
215.000
185.000
198.000
195.000
188.000
186.000
199.000
194.000
185.000
206.000
167.000
182.000
179.000
193.000
187.000
190.000
179.000
172.000
188.000
209.000
165.000
178.000
177.000
193.000
169.000
169.000
181.000
161.000
174.000
186.000
187.000
171.000
174.000
181.000
147.000
171.000
148.000
169.000
165.000
159.000
151.000
153.000
168.000
154.000
156.000
153.000
177.000
158.000
153.000
166.000
141.000
143.000
170.000
144.000
147.000
153.000
152.000
153.000
131.000
145.000
152.000
137.000
133.000
150.000
157.000
165.000
157.000
121.000
145.000
147.000
150.000
139.000
140.000
128.000
113.000
131.000
151.000
121.000
157.000
127.000
124.000
125.000
129.000
134.000
148.000
116.000
126.000
123.000
107.000
124.000
115.000
119.000
103.000
119.000
105.000
100.000
120.000
109.000
116.000
95.000
120.000
123.000
96.000
113.000
105.000
119.000
105.000
85.000
107.000
110.000
95.000
96.000
106.000
107.000
110.000
101.000
100.000
84.000
73.000
83.000
86.000
101.000
92.000
91.000
102.000
82.000
93.000
93.000
102.000
89.000
79.000
90.000
84.000
88.000
77.000
71.000
86.000
88.000
78.000
74.000
86.000
87.000
75.000
74.000
74.000
93.000
84.000
58.000
80.000
96.000
71.000
87.000
72.000
84.000
70.000
66.000
64.000
62.000
72.000
73.000
62.000
81.000
58.000
67.000
62.000
65.000
67.000
55.000
59.000
58.000
78.000
65.000
61.000
67.000
59.000
67.000
50.000
68.000
57.000
55.000
45.000
55.000
43.000
65.000
49.000
62.000
59.000
58.000
57.000
48.000
44.000
52.000
53.000
41.000
41.000
63.000
45.000
39.000
34.000
54.000
45.000
52.000
43.000
45.000
33.000
45.000
46.000
44.000
37.000
33.000
34.000
43.000
29.000
49.000
42.000
43.000
43.000
28.000
45.000
32.000
34.000
30.000
35.000
33.000
49.000
22.000
44.000
38.000
31.000
34.000
33.000
33.000
30.000
34.000
25.000
30.000
27.000
38.000
30.000
23.000
24.000
37.000
24.000
32.000
29.000
24.000
33.000
17.000
19.000
30.000
25.000
17.000
25.000
31.000
17.000
26.000
19.000
20.000
19.000
12.000
19.000
26.000
24.000
32.000
26.000
21.000
19.000
13.000
7.000
23.000
21.000
14.000
16.000
11.000
19.000
15.000
16.000
14.000
10.000
14.000
9.000
11.000
17.000
13.000
10.000
11.000
10.000
14.000
15.000
9.000
17.000
9.000
7.000
9.000
10.000
13.000
10.000
7.000
10.000
8.000
10.000
9.000
10.000
9.000
8.000
7.000
4.000
2.000
7.000
5.000
4.000
4.000
5.000
3.000
5.000
6.000
2.000
2.000
6.000
2.000
1.000
5.000
4.000
4.000
0.000
2.000
0.000
1.000
1.000
2.000
0.000
1.000
0.000
1.000
0.000
0.000
1.000
0.000
0.000
2.000
0.000
0.000
0.000
0.000
0.000
0.000
0.000
0.000
1.000
0.000
0.000
1.000
0.000
0.000
0.000
0.000
1.000
0.000
0.000
0.000
0.000
0.000
0.000
0.000
0.000
0.000
0.000
1.000
0.000
0.000
0.000
0.000
0.000
0.000
1.000
0.000
1.000
0.000
1.000
0.000
2.000
0.000
0.000
1.000
0.000
0.000
0.000
0.000
0.000
0.000
0.000
0.000
0.000
0.000
1.000
0.000
1.000
0.000
0.000
0.000
0.000
0.000
0.000
1.000
0.000
0.000
0.000
0.000
0.000
0.000
0.000
0.000
0.000
0.000
0.000
0.000
0.000
0.000
0.000
0.000
0.000
0.000
1.000
0.000
0.000
0.000
0.000
0.000
0.000
0.000
0.000
0.000
0.000
0.000
0.000
0.000
0.000
0.000
0.000
0.000
0.000
0.000
0.000
0.000
0.000
0.000
0.000
0.000
0.000
0.000
1.000
0.000
0.000
0.000
0.000
0.000
0.000
0.000
0.000
0.000
0.000
1.000
0.000
0.000
0.000
0.000
0.000
0.000
0.000
0.000
0.000
0.000
0.000
0.000
0.000
0.000
0.000
0.000
0.000
0.000
0.000
0.000
0.000
0.000
0.000
0.000
0.000
0.000
0.000
0.000
0.000
0.000
0.000
0.000
0.000
0.000
2.000
0.000
0.000
0.000
0.000
0.000
0.000
0.000
0.000
0.000
0.000
0.000
0.000
0.000
0.000
0.000
0.000
0.000
0.000
0.000
0.000
0.000
0.000
0.000
0.000
0.000
0.000
1.000
0.000
0.000
0.000
0.000
0.000
0.000
0.000
0.000
0.000
0.000
0.000
0.000
0.000
0.000
0.000
0.000
0.000
0.000
0.000
0.000
0.000
0.000
1.000
0.000
0.000
0.000
0.000
0.000
0.000
0.000
0.000
0.000
0.000
0.000
0.000
0.000
0.000
0.000
0.000
0.000
0.000
0.000
0.000
0.000
0.000
0.000
0.000
0.000
0.000
0.000
0.000
0.000
0.000
0.000
0.000
0.000
0.000
0.000
0.000
0.000
0.000
0.000
0.000
0.000
1.000
0.000
0.000
0.000
0.000
0.000
0.000
0.000
0.000
0.000
0.000
#ENDOFDATA   :