File: data/SEM-data_2024/artifact_surfaces/P5-1777_artifact_001_analysis_lw_region/spectrum.emsa
#FORMAT      : EMSA/MAS Spectral Data File
#VERSION     : 1.0
#TITLE       : EDS Spectrum
#DATE        : 19-SEP-2024
#TIME        : 11:20
#OWNER       : Thermo Fisher Scientific Inc.
#NPOINTS     : 2048.
#NCOLUMNS    : 1.
#XUNITS      : eV
#YUNITS      : Counts
#DATATYPE    : Y
#XPERCHAN    : 9.933
#OFFSET      : -44.878
#XLABEL      : Energy
#YLABEL      : Counts
#SIGNALTYPE  : EDS
#BEAMKV      : 15.000
#AZIMANGLE-dg: 0.0
#ELEVANGLE-dg: 28.5
#LIVETIME    : 30.729
#REALTIME    : 38.592
#EDSDET      : SDUTW
##MNFWHM     : 126.3
##INSTRUMENT : MVE075582-10647-L
##SLOWTPEAK  : 0.000004000
##FASTTPEAK  : 0.000000100
##OPTICALWD  : 0.005500000
##WD         : 0.009608297
##SDDAREA    : 0.000025
##CCORR      : 260.454
##SCORR      : LIN
#SPECTRUM    : Spectral Data Starts Here
0.000
0.000
0.000
0.000
0.000
0.000
0.000
82.000
45.000
47.000
48.000
62.000
50.000
76.000
200.000
360.000
431.000
366.000
197.000
159.000
178.000
221.000
274.000
300.000
430.000
921.000
2680.000
7042.000
10803.000
8376.000
3153.000
678.000
229.000
246.000
254.000
285.000
498.000
648.000
516.000
349.000
183.000
129.000
126.000
111.000
108.000
99.000
113.000
111.000
112.000
149.000
126.000
187.000
411.000
723.000
883.000
786.000
438.000
242.000
135.000
124.000
139.000
140.000
140.000
186.000
256.000
256.000
195.000
191.000
164.000
149.000
133.000
138.000
151.000
247.000
519.000
959.000
1562.000
1666.000
1169.000
661.000
350.000
213.000
175.000
187.000
211.000
393.000
858.000
2215.000
4496.000
6292.000
6285.000
4257.000
2058.000
932.000
469.000
288.000
181.000
131.000
100.000
98.000
94.000
111.000
128.000
124.000
128.000
141.000
82.000
90.000
69.000
71.000
78.000
58.000
85.000
55.000
69.000
64.000
93.000
85.000
78.000
80.000
77.000
81.000
73.000
77.000
80.000
65.000
54.000
68.000
61.000
71.000
62.000
59.000
66.000
72.000
72.000
68.000
77.000
62.000
52.000
72.000
59.000
54.000
59.000
57.000
55.000
67.000
60.000
56.000
53.000
51.000
49.000
48.000
55.000
61.000
57.000
64.000
54.000
62.000
64.000
48.000
71.000
71.000
55.000
56.000
59.000
73.000
79.000
116.000
110.000
153.000
148.000
98.000
102.000
61.000
56.000
60.000
49.000
59.000
47.000
51.000
55.000
57.000
54.000
59.000
65.000
65.000
80.000
67.000
62.000
81.000
60.000
53.000
40.000
47.000
39.000
37.000
49.000
42.000
39.000
40.000
33.000
34.000
38.000
39.000
43.000
45.000
51.000
32.000
42.000
53.000
37.000
34.000
31.000
34.000
40.000
46.000
31.000
35.000
39.000
37.000
35.000
37.000
30.000
31.000
34.000
38.000
49.000
62.000
81.000
55.000
52.000
49.000
39.000
38.000
39.000
35.000
28.000
38.000
33.000
37.000
40.000
29.000
26.000
37.000
28.000
31.000
38.000
26.000
27.000
18.000
39.000
43.000
28.000
20.000
29.000
31.000
23.000
33.000
22.000
29.000
23.000
16.000
29.000
24.000
26.000
25.000
28.000
32.000
33.000
33.000
24.000
29.000
29.000
25.000
24.000
17.000
28.000
31.000
25.000
25.000
21.000
29.000
27.000
30.000
15.000
14.000
23.000
32.000
24.000
22.000
24.000
33.000
16.000
34.000
24.000
33.000
33.000
28.000
33.000
24.000
26.000
35.000
22.000
32.000
21.000
22.000
19.000
23.000
21.000
21.000
25.000
19.000
28.000
19.000
28.000
28.000
32.000
45.000
47.000
63.000
125.000
168.000
219.000
287.000
290.000
293.000
226.000
163.000
147.000
73.000
38.000
29.000
34.000
19.000
25.000
14.000
20.000
15.000
14.000
16.000
19.000
22.000
19.000
19.000
16.000
22.000
15.000
19.000
11.000
26.000
18.000
22.000
27.000
34.000
37.000
35.000
44.000
39.000
48.000
50.000
37.000
40.000
27.000
22.000
15.000
7.000
12.000
10.000
18.000
18.000
13.000
13.000
13.000
14.000
10.000
17.000
17.000
14.000
22.000
18.000
16.000
11.000
13.000
11.000
12.000
14.000
10.000
15.000
14.000
11.000
15.000
23.000
12.000
12.000
10.000
16.000
16.000
11.000
16.000
17.000
11.000
19.000
12.000
14.000
12.000
9.000
8.000
11.000
10.000
14.000
14.000
7.000
8.000
12.000
12.000
13.000
13.000
10.000
10.000
16.000
6.000
14.000
14.000
7.000
16.000
4.000
8.000
11.000
7.000
11.000
9.000
5.000
9.000
8.000
8.000
7.000
12.000
9.000
23.000
7.000
10.000
9.000
10.000
9.000
11.000
12.000
8.000
9.000
8.000
17.000
7.000
4.000
6.000
10.000
10.000
15.000
5.000
11.000
11.000
11.000
5.000
7.000
6.000
8.000
3.000
8.000
6.000
7.000
6.000
12.000
5.000
14.000
7.000
6.000
10.000
8.000
8.000
9.000
9.000
8.000
7.000
4.000
4.000
6.000
12.000
5.000
10.000
10.000
12.000
8.000
8.000
5.000
10.000
6.000
9.000
8.000
9.000
10.000
6.000
7.000
10.000
8.000
10.000
6.000
8.000
6.000
6.000
8.000
7.000
5.000
8.000
7.000
5.000
2.000
9.000
5.000
6.000
8.000
6.000
5.000
6.000
5.000
5.000
8.000
3.000
6.000
8.000
6.000
4.000
2.000
5.000
6.000
6.000
4.000
3.000
6.000
4.000
4.000
4.000
5.000
10.000
4.000
12.000
0.000
5.000
9.000
9.000
5.000
5.000
6.000
1.000
3.000
5.000
4.000
3.000
3.000
5.000
5.000
2.000
1.000
2.000
2.000
3.000
3.000
5.000
3.000
2.000
6.000
7.000
4.000
5.000
3.000
1.000
2.000
4.000
3.000
4.000
2.000
9.000
6.000
1.000
2.000
6.000
3.000
6.000
2.000
5.000
2.000
3.000
3.000
4.000
3.000
2.000
1.000
1.000
0.000
2.000
2.000
1.000
1.000
1.000
4.000
1.000
1.000
0.000
4.000
1.000
3.000
1.000
2.000
7.000
2.000
3.000
4.000
2.000
1.000
2.000
1.000
1.000
0.000
0.000
1.000
4.000
2.000
3.000
1.000
2.000
2.000
2.000
2.000
2.000
0.000
2.000
2.000
3.000
2.000
1.000
2.000
1.000
1.000
1.000
0.000
2.000
1.000
5.000
0.000
2.000
0.000
3.000
2.000
3.000
1.000
0.000
1.000
1.000
1.000
4.000
1.000
0.000
6.000
1.000
2.000
1.000
2.000
1.000
0.000
0.000
1.000
2.000
4.000
0.000
3.000
3.000
0.000
3.000
1.000
0.000
0.000
1.000
2.000
0.000
1.000
4.000
0.000
2.000
1.000
1.000
1.000
2.000
0.000
2.000
0.000
0.000
0.000
0.000
2.000
2.000
1.000
0.000
0.000
0.000
0.000
0.000
1.000
1.000
1.000
0.000
1.000
0.000
3.000
0.000
1.000
0.000
1.000
0.000
0.000
0.000
0.000
1.000
0.000
0.000
0.000
0.000
0.000
0.000
0.000
0.000
0.000
0.000
0.000
0.000
0.000
0.000
0.000
0.000
0.000
0.000
0.000
1.000
0.000
0.000
0.000
0.000
0.000
0.000
0.000
0.000
0.000
0.000
0.000
0.000
0.000
0.000
0.000
0.000
0.000
0.000
0.000
0.000
0.000
0.000
0.000
0.000
0.000
0.000
0.000
0.000
0.000
0.000
0.000
0.000
0.000
0.000
0.000
0.000
0.000
0.000
0.000
0.000
0.000
0.000
0.000
0.000
0.000
0.000
0.000
0.000
0.000
0.000
0.000
0.000
0.000
0.000
0.000
0.000
0.000
0.000
0.000
0.000
0.000
0.000
0.000
0.000
0.000
0.000
0.000
0.000
0.000
0.000
0.000
0.000
0.000
0.000
0.000
0.000
0.000
0.000
0.000
0.000
0.000
0.000
0.000
0.000
0.000
0.000
0.000
0.000
0.000
0.000
0.000
0.000
0.000
0.000
0.000
0.000
0.000
0.000
0.000
0.000
0.000
0.000
0.000
1.000
0.000
0.000
0.000
0.000
0.000
0.000
0.000
0.000
0.000
0.000
0.000
0.000
0.000
0.000
0.000
0.000
0.000
0.000
0.000
0.000
0.000
0.000
0.000
0.000
0.000
0.000
0.000
0.000
0.000
0.000
0.000
0.000
0.000
0.000
0.000
0.000
0.000
0.000
0.000
0.000
0.000
0.000
0.000
0.000
0.000
0.000
0.000
0.000
0.000
0.000
0.000
0.000
0.000
0.000
0.000
0.000
0.000
0.000
0.000
0.000
0.000
0.000
0.000
0.000
0.000
0.000
0.000
0.000
0.000
0.000
0.000
0.000
0.000
0.000
0.000
0.000
0.000
0.000
0.000
0.000
0.000
0.000
0.000
0.000
0.000
0.000
0.000
0.000
0.000
0.000
0.000
0.000
0.000
0.000
0.000
0.000
0.000
0.000
0.000
0.000
0.000
0.000
0.000
0.000
0.000
0.000
0.000
0.000
0.000
0.000
0.000
0.000
0.000
0.000
0.000
0.000
0.000
0.000
0.000
0.000
0.000
0.000
0.000
0.000
0.000
0.000
0.000
0.000
0.000
0.000
0.000
0.000
0.000
0.000
0.000
0.000
0.000
0.000
0.000
0.000
0.000
0.000
0.000
0.000
0.000
0.000
0.000
0.000
0.000
0.000
0.000
0.000
0.000
0.000
0.000
0.000
0.000
0.000
0.000
0.000
0.000
0.000
0.000
0.000
0.000
0.000
0.000
0.000
0.000
0.000
0.000
0.000
0.000
0.000
0.000
0.000
0.000
0.000
0.000
0.000
0.000
0.000
#ENDOFDATA   :