File: data/SEM-data_2024/artifact_surfaces/P5-1962_artifact_001_analysis_mw_region/spectrum.emsa
#FORMAT      : EMSA/MAS Spectral Data File
#VERSION     : 1.0
#TITLE       : EDS Spectrum
#DATE        : 19-SEP-2024
#TIME        : 11:20
#OWNER       : Thermo Fisher Scientific Inc.
#NPOINTS     : 2048.
#NCOLUMNS    : 1.
#XUNITS      : eV
#YUNITS      : Counts
#DATATYPE    : Y
#XPERCHAN    : 9.933
#OFFSET      : -44.878
#XLABEL      : Energy
#YLABEL      : Counts
#SIGNALTYPE  : EDS
#BEAMKV      : 15.000
#AZIMANGLE-dg: 0.0
#ELEVANGLE-dg: 28.5
#LIVETIME    : 45.820
#REALTIME    : 55.961
#EDSDET      : SDUTW
##MNFWHM     : 126.3
##INSTRUMENT : MVE075582-10647-L
##SLOWTPEAK  : 0.000004000
##FASTTPEAK  : 0.000000100
##OPTICALWD  : 0.005500000
##WD         : 0.0113923
##SDDAREA    : 0.000025
##CCORR      : 260.454
##SCORR      : LIN
#SPECTRUM    : Spectral Data Starts Here
0.000
0.000
0.000
0.000
0.000
0.000
0.000
77.000
61.000
43.000
39.000
71.000
64.000
129.000
232.000
543.000
742.000
559.000
201.000
115.000
165.000
240.000
267.000
271.000
365.000
897.000
2582.000
6598.000
10082.000
7759.000
2959.000
616.000
200.000
199.000
171.000
230.000
354.000
483.000
450.000
280.000
155.000
136.000
104.000
116.000
111.000
106.000
104.000
132.000
105.000
124.000
128.000
169.000
238.000
369.000
457.000
408.000
275.000
158.000
147.000
130.000
142.000
142.000
189.000
277.000
406.000
512.000
410.000
257.000
195.000
164.000
147.000
142.000
191.000
236.000
450.000
934.000
1450.000
1558.000
1096.000
632.000
359.000
203.000
176.000
159.000
189.000
326.000
951.000
2440.000
4844.000
6662.000
6587.000
4389.000
2139.000
981.000
492.000
346.000
193.000
154.000
117.000
95.000
99.000
109.000
142.000
168.000
156.000
128.000
118.000
77.000
91.000
91.000
76.000
76.000
73.000
73.000
80.000
90.000
74.000
90.000
113.000
85.000
77.000
92.000
78.000
67.000
72.000
86.000
90.000
65.000
61.000
48.000
72.000
83.000
78.000
110.000
105.000
86.000
77.000
60.000
74.000
69.000
69.000
65.000
68.000
73.000
54.000
52.000
60.000
55.000
53.000
54.000
51.000
57.000
56.000
58.000
53.000
49.000
69.000
51.000
79.000
58.000
59.000
66.000
60.000
48.000
61.000
83.000
126.000
154.000
230.000
210.000
173.000
144.000
92.000
95.000
56.000
54.000
51.000
62.000
59.000
51.000
63.000
59.000
80.000
78.000
106.000
75.000
114.000
127.000
134.000
134.000
103.000
72.000
52.000
41.000
42.000
39.000
46.000
45.000
41.000
48.000
43.000
47.000
41.000
42.000
50.000
48.000
58.000
40.000
42.000
29.000
35.000
42.000
42.000
43.000
32.000
44.000
35.000
39.000
30.000
47.000
32.000
36.000
29.000
31.000
34.000
36.000
63.000
50.000
55.000
72.000
60.000
45.000
38.000
43.000
44.000
41.000
39.000
43.000
28.000
27.000
32.000
28.000
38.000
39.000
41.000
42.000
28.000
41.000
40.000
25.000
44.000
31.000
35.000
17.000
41.000
25.000
39.000
27.000
25.000
29.000
31.000
21.000
24.000
40.000
35.000
32.000
34.000
36.000
19.000
34.000
27.000
24.000
28.000
25.000
28.000
31.000
22.000
22.000
25.000
25.000
25.000
29.000
27.000
21.000
32.000
27.000
24.000
32.000
26.000
31.000
28.000
32.000
27.000
17.000
30.000
27.000
34.000
30.000
34.000
29.000
28.000
28.000
31.000
21.000
22.000
30.000
30.000
25.000
21.000
19.000
29.000
26.000
21.000
22.000
17.000
17.000
29.000
30.000
45.000
63.000
101.000
150.000
173.000
217.000
253.000
262.000
249.000
163.000
121.000
73.000
48.000
37.000
31.000
16.000
25.000
15.000
21.000
25.000
23.000
25.000
18.000
17.000
18.000
17.000
21.000
19.000
17.000
14.000
28.000
18.000
23.000
25.000
30.000
19.000
31.000
53.000
36.000
58.000
41.000
58.000
42.000
30.000
15.000
27.000
18.000
16.000
15.000
18.000
16.000
20.000
17.000
15.000
13.000
19.000
15.000
12.000
15.000
9.000
13.000
10.000
23.000
15.000
16.000
15.000
12.000
8.000
7.000
10.000
14.000
9.000
18.000
15.000
14.000
8.000
12.000
16.000
12.000
8.000
11.000
10.000
16.000
5.000
8.000
10.000
15.000
7.000
14.000
14.000
11.000
11.000
14.000
22.000
9.000
19.000
18.000
13.000
9.000
14.000
16.000
12.000
11.000
17.000
12.000
15.000
4.000
16.000
11.000
17.000
14.000
2.000
17.000
7.000
6.000
12.000
11.000
12.000
14.000
9.000
9.000
8.000
5.000
6.000
10.000
10.000
5.000
6.000
4.000
8.000
6.000
13.000
7.000
13.000
8.000
10.000
8.000
11.000
4.000
7.000
7.000
10.000
7.000
5.000
4.000
14.000
7.000
11.000
11.000
10.000
1.000
10.000
7.000
6.000
12.000
12.000
4.000
5.000
6.000
9.000
11.000
6.000
7.000
10.000
4.000
2.000
4.000
8.000
7.000
7.000
10.000
6.000
8.000
5.000
6.000
10.000
5.000
7.000
9.000
7.000
6.000
8.000
7.000
5.000
9.000
5.000
9.000
3.000
10.000
9.000
5.000
2.000
9.000
3.000
6.000
8.000
4.000
8.000
4.000
5.000
6.000
7.000
7.000
2.000
6.000
8.000
2.000
3.000
6.000
5.000
6.000
7.000
5.000
9.000
5.000
5.000
6.000
6.000
5.000
5.000
3.000
3.000
5.000
4.000
4.000
8.000
6.000
5.000
4.000
6.000
4.000
6.000
5.000
3.000
9.000
5.000
3.000
9.000
3.000
2.000
3.000
7.000
7.000
5.000
3.000
6.000
6.000
1.000
3.000
2.000
6.000
7.000
3.000
1.000
4.000
5.000
5.000
2.000
5.000
4.000
3.000
3.000
5.000
0.000
6.000
5.000
3.000
3.000
3.000
6.000
1.000
4.000
5.000
2.000
5.000
2.000
4.000
2.000
1.000
0.000
5.000
2.000
0.000
1.000
4.000
2.000
5.000
3.000
2.000
1.000
8.000
1.000
3.000
3.000
3.000
1.000
3.000
6.000
1.000
10.000
3.000
3.000
4.000
4.000
2.000
2.000
3.000
2.000
1.000
0.000
1.000
0.000
2.000
0.000
1.000
1.000
2.000
5.000
4.000
2.000
2.000
1.000
1.000
1.000
3.000
1.000
2.000
1.000
2.000
1.000
0.000
1.000
2.000
0.000
1.000
1.000
0.000
0.000
4.000
4.000
4.000
2.000
2.000
0.000
0.000
1.000
2.000
0.000
2.000
1.000
0.000
0.000
1.000
0.000
0.000
0.000
0.000
1.000
0.000
0.000
0.000
0.000
3.000
0.000
1.000
1.000
1.000
1.000
1.000
1.000
2.000
0.000
2.000
1.000
1.000
1.000
0.000
1.000
1.000
1.000
1.000
0.000
0.000
1.000
1.000
0.000
1.000
1.000
0.000
0.000
0.000
0.000
1.000
1.000
0.000
0.000
1.000
0.000
0.000
0.000
0.000
0.000
0.000
2.000
2.000
0.000
1.000
1.000
0.000
0.000
0.000
1.000
0.000
0.000
0.000
0.000
0.000
0.000
0.000
0.000
0.000
1.000
0.000
0.000
0.000
1.000
0.000
0.000
0.000
0.000
0.000
0.000
0.000
0.000
0.000
0.000
0.000
0.000
0.000
0.000
0.000
0.000
0.000
0.000
0.000
0.000
0.000
0.000
0.000
0.000
0.000
0.000
0.000
0.000
0.000
0.000
0.000
0.000
0.000
0.000
0.000
0.000
0.000
0.000
0.000
0.000
0.000
0.000
0.000
0.000
0.000
0.000
0.000
0.000
0.000
0.000
0.000
0.000
0.000
0.000
0.000
0.000
0.000
0.000
0.000
0.000
0.000
0.000
0.000
0.000
0.000
0.000
0.000
0.000
0.000
0.000
0.000
0.000
0.000
0.000
0.000
0.000
0.000
0.000
0.000
0.000
0.000
0.000
0.000
0.000
0.000
0.000
0.000
0.000
0.000
0.000
0.000
0.000
0.000
0.000
0.000
0.000
0.000
0.000
0.000
0.000
0.000
0.000
0.000
0.000
0.000
0.000
0.000
0.000
0.000
0.000
0.000
0.000
0.000
0.000
0.000
0.000
0.000
0.000
0.000
0.000
0.000
0.000
0.000
0.000
0.000
0.000
0.000
0.000
0.000
0.000
0.000
0.000
0.000
0.000
0.000
0.000
0.000
0.000
0.000
0.000
0.000
0.000
0.000
0.000
0.000
0.000
0.000
0.000
0.000
0.000
0.000
0.000
0.000
0.000
0.000
0.000
0.000
0.000
0.000
0.000
0.000
0.000
0.000
0.000
0.000
0.000
0.000
0.000
0.000
0.000
0.000
0.000
0.000
0.000
0.000
0.000
0.000
0.000
0.000
0.000
0.000
0.000
0.000
0.000
0.000
0.000
0.000
0.000
0.000
0.000
0.000
0.000
0.000
0.000
0.000
0.000
0.000
0.000
0.000
0.000
0.000
0.000
0.000
0.000
0.000
0.000
0.000
0.000
0.000
0.000
0.000
0.000
0.000
0.000
0.000
0.000
0.000
0.000
0.000
0.000
0.000
0.000
0.000
0.000
0.000
0.000
0.000
0.000
0.000
0.000
0.000
0.000
0.000
0.000
0.000
0.000
0.000
0.000
0.000
0.000
0.000
0.000
0.000
0.000
0.000
0.000
0.000
0.000
0.000
0.000
0.000
0.000
0.000
0.000
0.000
0.000
0.000
0.000
0.000
0.000
0.000
0.000
0.000
0.000
0.000
0.000
0.000
0.000
0.000
0.000
0.000
0.000
0.000
0.000
0.000
0.000
0.000
0.000
0.000
0.000
0.000
#ENDOFDATA   :