File: data/SEM-data_2024/artifact_surfaces/P5-1566_artifact_001_analysis_lw_region/spectrum.emsa
#FORMAT      : EMSA/MAS Spectral Data File
#VERSION     : 1.0
#TITLE       : EDS Spectrum
#DATE        : 19-SEP-2024
#TIME        : 11:20
#OWNER       : Thermo Fisher Scientific Inc.
#NPOINTS     : 2048.
#NCOLUMNS    : 1.
#XUNITS      : eV
#YUNITS      : Counts
#DATATYPE    : Y
#XPERCHAN    : 9.933
#OFFSET      : -44.878
#XLABEL      : Energy
#YLABEL      : Counts
#SIGNALTYPE  : EDS
#BEAMKV      : 15.000
#AZIMANGLE-dg: 0.0
#ELEVANGLE-dg: 28.5
#LIVETIME    : 58.764
#REALTIME    : 70.961
#EDSDET      : SDUTW
##MNFWHM     : 126.3
##INSTRUMENT : MVE075582-10647-L
##SLOWTPEAK  : 0.000004000
##FASTTPEAK  : 0.000000100
##OPTICALWD  : 0.005500000
##WD         : 0.0112519
##SDDAREA    : 0.000025
##CCORR      : 260.454
##SCORR      : LIN
#SPECTRUM    : Spectral Data Starts Here
0.000
0.000
0.000
0.000
0.000
0.000
0.000
89.000
74.000
47.000
61.000
49.000
67.000
103.000
231.000
503.000
675.000
555.000
214.000
121.000
163.000
181.000
229.000
255.000
316.000
793.000
2423.000
6178.000
9659.000
7651.000
2928.000
593.000
162.000
116.000
102.000
156.000
228.000
264.000
274.000
182.000
114.000
94.000
94.000
114.000
103.000
125.000
117.000
117.000
120.000
138.000
158.000
178.000
338.000
629.000
812.000
769.000
424.000
227.000
142.000
138.000
120.000
111.000
146.000
164.000
228.000
281.000
250.000
189.000
151.000
132.000
121.000
138.000
159.000
257.000
550.000
1124.000
1719.000
1875.000
1395.000
732.000
370.000
251.000
174.000
160.000
182.000
328.000
970.000
2766.000
5234.000
7614.000
7410.000
4897.000
2372.000
1014.000
503.000
319.000
231.000
145.000
103.000
84.000
61.000
71.000
92.000
79.000
96.000
81.000
68.000
57.000
81.000
70.000
77.000
65.000
87.000
63.000
54.000
81.000
81.000
61.000
89.000
71.000
71.000
63.000
69.000
76.000
70.000
52.000
69.000
79.000
71.000
52.000
64.000
64.000
61.000
76.000
82.000
65.000
64.000
62.000
56.000
65.000
66.000
72.000
69.000
66.000
60.000
59.000
69.000
52.000
51.000
50.000
62.000
52.000
57.000
58.000
52.000
50.000
41.000
39.000
61.000
56.000
60.000
48.000
50.000
63.000
63.000
104.000
144.000
185.000
256.000
260.000
221.000
173.000
95.000
71.000
49.000
37.000
36.000
38.000
43.000
62.000
69.000
62.000
62.000
68.000
67.000
71.000
88.000
129.000
124.000
106.000
77.000
59.000
65.000
43.000
43.000
32.000
38.000
45.000
31.000
48.000
45.000
29.000
50.000
47.000
35.000
54.000
36.000
46.000
41.000
41.000
37.000
44.000
30.000
45.000
34.000
32.000
32.000
42.000
30.000
33.000
35.000
38.000
31.000
40.000
33.000
49.000
56.000
63.000
78.000
68.000
64.000
57.000
47.000
52.000
24.000
28.000
37.000
32.000
32.000
28.000
32.000
27.000
36.000
31.000
28.000
36.000
28.000
38.000
34.000
35.000
40.000
28.000
39.000
33.000
35.000
36.000
31.000
23.000
37.000
29.000
35.000
26.000
24.000
34.000
24.000
21.000
30.000
26.000
21.000
35.000
20.000
24.000
23.000
30.000
27.000
23.000
30.000
24.000
24.000
18.000
27.000
19.000
12.000
16.000
25.000
20.000
21.000
19.000
30.000
29.000
25.000
23.000
24.000
16.000
20.000
20.000
25.000
24.000
21.000
22.000
27.000
23.000
15.000
27.000
21.000
28.000
25.000
20.000
18.000
27.000
21.000
16.000
18.000
22.000
19.000
30.000
14.000
17.000
34.000
34.000
49.000
84.000
87.000
104.000
119.000
104.000
94.000
74.000
71.000
24.000
27.000
28.000
15.000
17.000
22.000
11.000
14.000
18.000
14.000
19.000
23.000
11.000
19.000
23.000
10.000
16.000
14.000
20.000
11.000
12.000
14.000
15.000
14.000
22.000
24.000
21.000
28.000
26.000
34.000
36.000
17.000
10.000
25.000
12.000
21.000
14.000
15.000
16.000
16.000
14.000
10.000
17.000
13.000
14.000
15.000
15.000
20.000
13.000
17.000
8.000
18.000
16.000
10.000
18.000
13.000
13.000
17.000
12.000
6.000
24.000
15.000
17.000
9.000
10.000
9.000
18.000
13.000
10.000
6.000
6.000
12.000
11.000
9.000
15.000
15.000
10.000
17.000
6.000
15.000
10.000
14.000
15.000
6.000
5.000
11.000
17.000
5.000
20.000
10.000
12.000
4.000
9.000
9.000
7.000
8.000
10.000
13.000
9.000
10.000
11.000
12.000
11.000
14.000
10.000
10.000
13.000
15.000
11.000
11.000
12.000
6.000
7.000
11.000
8.000
14.000
6.000
8.000
10.000
6.000
8.000
6.000
6.000
10.000
16.000
13.000
7.000
6.000
12.000
10.000
7.000
10.000
9.000
8.000
6.000
11.000
14.000
13.000
10.000
4.000
6.000
11.000
9.000
10.000
9.000
3.000
4.000
7.000
5.000
13.000
8.000
4.000
10.000
6.000
5.000
5.000
9.000
6.000
6.000
8.000
5.000
2.000
11.000
5.000
3.000
6.000
8.000
2.000
11.000
9.000
10.000
6.000
6.000
8.000
2.000
8.000
5.000
4.000
8.000
6.000
5.000
4.000
8.000
5.000
4.000
2.000
7.000
6.000
9.000
3.000
7.000
6.000
6.000
6.000
6.000
6.000
3.000
2.000
3.000
3.000
4.000
8.000
5.000
3.000
3.000
6.000
1.000
4.000
10.000
6.000
6.000
4.000
6.000
5.000
3.000
8.000
3.000
6.000
5.000
5.000
8.000
4.000
5.000
4.000
1.000
3.000
6.000
5.000
5.000
6.000
2.000
6.000
6.000
2.000
3.000
3.000
4.000
3.000
2.000
3.000
5.000
5.000
2.000
3.000
3.000
1.000
2.000
1.000
1.000
2.000
5.000
2.000
3.000
4.000
1.000
1.000
2.000
4.000
3.000
1.000
0.000
3.000
0.000
2.000
4.000
3.000
3.000
1.000
3.000
3.000
2.000
3.000
1.000
3.000
5.000
1.000
4.000
2.000
2.000
3.000
2.000
5.000
2.000
3.000
0.000
4.000
4.000
3.000
4.000
2.000
0.000
3.000
4.000
3.000
1.000
2.000
1.000
1.000
3.000
2.000
2.000
2.000
2.000
1.000
3.000
4.000
3.000
3.000
1.000
2.000
2.000
2.000
4.000
1.000
1.000
1.000
2.000
0.000
1.000
2.000
0.000
1.000
2.000
0.000
1.000
0.000
0.000
2.000
3.000
1.000
2.000
0.000
5.000
2.000
2.000
3.000
2.000
2.000
1.000
4.000
1.000
0.000
2.000
1.000
0.000
1.000
1.000
1.000
0.000
4.000
1.000
1.000
1.000
1.000
2.000
2.000
0.000
1.000
2.000
2.000
0.000
2.000
1.000
2.000
0.000
1.000
0.000
1.000
0.000
2.000
0.000
1.000
2.000
1.000
1.000
0.000
1.000
0.000
0.000
0.000
0.000
0.000
0.000
1.000
1.000
0.000
1.000
1.000
0.000
1.000
0.000
0.000
0.000
0.000
0.000
1.000
0.000
0.000
0.000
0.000
0.000
0.000
0.000
0.000
0.000
0.000
0.000
0.000
0.000
0.000
0.000
0.000
0.000
0.000
0.000
0.000
0.000
0.000
0.000
0.000
0.000
0.000
0.000
0.000
0.000
0.000
0.000
0.000
0.000
0.000
0.000
0.000
0.000
0.000
0.000
0.000
0.000
0.000
0.000
0.000
0.000
0.000
0.000
0.000
0.000
0.000
0.000
0.000
0.000
0.000
0.000
0.000
0.000
0.000
0.000
0.000
0.000
0.000
0.000
0.000
0.000
0.000
0.000
0.000
0.000
0.000
0.000
0.000
0.000
0.000
0.000
0.000
0.000
0.000
0.000
0.000
0.000
0.000
0.000
0.000
0.000
0.000
0.000
0.000
0.000
0.000
0.000
0.000
0.000
0.000
0.000
0.000
0.000
0.000
0.000
0.000
0.000
0.000
0.000
0.000
0.000
0.000
0.000
0.000
0.000
0.000
0.000
0.000
0.000
0.000
0.000
0.000
0.000
0.000
0.000
0.000
0.000
0.000
0.000
0.000
0.000
0.000
0.000
0.000
0.000
0.000
0.000
0.000
0.000
0.000
0.000
0.000
0.000
0.000
0.000
0.000
0.000
0.000
0.000
0.000
0.000
0.000
0.000
0.000
0.000
0.000
0.000
0.000
0.000
0.000
0.000
0.000
0.000
0.000
0.000
0.000
0.000
0.000
0.000
0.000
0.000
0.000
0.000
0.000
0.000
0.000
0.000
0.000
0.000
0.000
0.000
0.000
0.000
0.000
0.000
0.000
0.000
0.000
0.000
0.000
0.000
0.000
0.000
0.000
0.000
0.000
0.000
0.000
0.000
0.000
0.000
0.000
0.000
0.000
0.000
0.000
0.000
0.000
0.000
0.000
0.000
0.000
0.000
0.000
0.000
0.000
0.000
0.000
0.000
0.000
0.000
0.000
0.000
0.000
0.000
0.000
0.000
0.000
0.000
0.000
0.000
0.000
0.000
0.000
0.000
0.000
0.000
0.000
0.000
0.000
0.000
0.000
0.000
0.000
0.000
0.000
0.000
0.000
0.000
0.000
0.000
0.000
0.000
0.000
0.000
0.000
0.000
0.000
0.000
0.000
0.000
0.000
0.000
0.000
0.000
0.000
0.000
0.000
0.000
0.000
0.000
0.000
0.000
0.000
0.000
0.000
0.000
0.000
0.000
0.000
0.000
0.000
0.000
0.000
0.000
0.000
0.000
0.000
0.000
0.000
0.000
0.000
0.000
0.000
0.000
0.000
0.000
0.000
0.000
0.000
0.000
0.000
0.000
0.000
0.000
0.000
#ENDOFDATA   :