File: data/SEM-data_2024/artifact_surfaces/P1-336_artifact_mw_analysis_2_region/spectrum.emsa
#FORMAT      : EMSA/MAS Spectral Data File
#VERSION     : 1.0
#TITLE       : EDS Spectrum
#DATE        : 19-SEP-2024
#TIME        : 11:20
#OWNER       : Thermo Fisher Scientific Inc.
#NPOINTS     : 2048.
#NCOLUMNS    : 1.
#XUNITS      : eV
#YUNITS      : Counts
#DATATYPE    : Y
#XPERCHAN    : 9.933
#OFFSET      : -44.878
#XLABEL      : Energy
#YLABEL      : Counts
#SIGNALTYPE  : EDS
#BEAMKV      : 15.000
#AZIMANGLE-dg: 0.0
#ELEVANGLE-dg: 28.5
#LIVETIME    : 999.040
#REALTIME    : 1165.388
#EDSDET      : SDUTW
##MNFWHM     : 126.3
##INSTRUMENT : MVE075582-10647-L
##SLOWTPEAK  : 0.000004000
##FASTTPEAK  : 0.000000100
##OPTICALWD  : 0.005500000
##WD         : 0.006450533
##SDDAREA    : 0.000025
##CCORR      : 260.454
##SCORR      : LIN
#SPECTRUM    : Spectral Data Starts Here
0.000
0.000
0.000
0.000
0.000
0.000
0.000
283.000
36.000
31.000
29.000
30.000
26.000
54.000
182.000
360.000
481.000
354.000
146.000
69.000
106.000
174.000
223.000
171.000
164.000
319.000
969.000
2626.000
3997.000
3127.000
1244.000
256.000
56.000
49.000
44.000
52.000
81.000
96.000
121.000
65.000
43.000
33.000
38.000
55.000
49.000
65.000
41.000
62.000
50.000
68.000
73.000
89.000
172.000
321.000
418.000
340.000
213.000
108.000
73.000
70.000
73.000
92.000
79.000
92.000
153.000
126.000
124.000
93.000
82.000
80.000
87.000
113.000
104.000
165.000
310.000
560.000
932.000
1025.000
815.000
489.000
261.000
141.000
130.000
138.000
181.000
321.000
858.000
2546.000
5245.000
7229.000
7087.000
4830.000
2354.000
1027.000
520.000
313.000
199.000
106.000
58.000
43.000
54.000
48.000
59.000
65.000
55.000
56.000
52.000
31.000
48.000
62.000
48.000
44.000
65.000
48.000
43.000
51.000
68.000
62.000
67.000
74.000
68.000
71.000
46.000
51.000
43.000
61.000
67.000
63.000
60.000
47.000
67.000
64.000
85.000
76.000
98.000
80.000
75.000
58.000
63.000
52.000
61.000
66.000
59.000
48.000
69.000
55.000
65.000
57.000
57.000
61.000
66.000
73.000
75.000
61.000
76.000
61.000
53.000
63.000
80.000
73.000
68.000
57.000
75.000
69.000
58.000
88.000
103.000
125.000
154.000
141.000
120.000
135.000
100.000
67.000
52.000
53.000
63.000
71.000
61.000
68.000
67.000
63.000
77.000
99.000
84.000
111.000
130.000
143.000
136.000
122.000
105.000
83.000
79.000
71.000
64.000
63.000
70.000
71.000
53.000
73.000
60.000
79.000
77.000
74.000
73.000
89.000
69.000
75.000
65.000
52.000
59.000
66.000
51.000
73.000
77.000
65.000
63.000
75.000
64.000
62.000
70.000
55.000
62.000
67.000
74.000
79.000
85.000
105.000
97.000
94.000
98.000
92.000
92.000
75.000
68.000
64.000
64.000
68.000
92.000
75.000
77.000
66.000
62.000
76.000
83.000
74.000
62.000
75.000
67.000
84.000
75.000
80.000
86.000
67.000
70.000
64.000
76.000
63.000
67.000
70.000
73.000
89.000
79.000
65.000
73.000
71.000
79.000
77.000
55.000
64.000
73.000
93.000
71.000
83.000
86.000
73.000
70.000
64.000
72.000
72.000
58.000
72.000
65.000
70.000
79.000
67.000
77.000
81.000
91.000
78.000
64.000
68.000
75.000
72.000
71.000
78.000
70.000
74.000
81.000
90.000
80.000
65.000
68.000
65.000
67.000
74.000
68.000
72.000
67.000
81.000
76.000
73.000
70.000
69.000
72.000
84.000
77.000
76.000
96.000
144.000
183.000
251.000
318.000
416.000
456.000
486.000
409.000
306.000
226.000
166.000
114.000
94.000
80.000
73.000
80.000
77.000
83.000
60.000
72.000
90.000
82.000
81.000
69.000
70.000
76.000
91.000
86.000
79.000
75.000
81.000
75.000
87.000
94.000
96.000
117.000
135.000
159.000
134.000
131.000
126.000
123.000
117.000
95.000
82.000
73.000
79.000
65.000
67.000
62.000
63.000
63.000
74.000
74.000
62.000
69.000
63.000
64.000
74.000
90.000
63.000
83.000
70.000
81.000
59.000
64.000
69.000
67.000
61.000
80.000
67.000
68.000
70.000
77.000
78.000
67.000
80.000
72.000
72.000
79.000
75.000
73.000
74.000
77.000
60.000
73.000
82.000
58.000
74.000
61.000
87.000
78.000
86.000
96.000
74.000
77.000
80.000
61.000
78.000
67.000
74.000
79.000
78.000
82.000
67.000
61.000
68.000
73.000
74.000
59.000
81.000
61.000
69.000
73.000
78.000
76.000
80.000
86.000
77.000
78.000
74.000
69.000
76.000
74.000
79.000
81.000
80.000
65.000
69.000
73.000
62.000
64.000
72.000
72.000
63.000
65.000
78.000
79.000
72.000
86.000
90.000
61.000
65.000
62.000
68.000
74.000
78.000
87.000
70.000
90.000
70.000
73.000
71.000
96.000
65.000
57.000
65.000
76.000
68.000
61.000
66.000
60.000
73.000
73.000
81.000
67.000
87.000
78.000
64.000
74.000
79.000
72.000
68.000
62.000
65.000
88.000
76.000
77.000
81.000
68.000
58.000
79.000
64.000
73.000
73.000
76.000
68.000
68.000
77.000
89.000
74.000
64.000
70.000
72.000
68.000
76.000
85.000
71.000
64.000
61.000
54.000
66.000
61.000
59.000
64.000
87.000
67.000
58.000
71.000
48.000
84.000
66.000
55.000
67.000
64.000
76.000
61.000
82.000
51.000
53.000
79.000
66.000
59.000
59.000
60.000
57.000
67.000
69.000
57.000
57.000
64.000
54.000
71.000
65.000
51.000
58.000
57.000
52.000
75.000
59.000
55.000
55.000
70.000
46.000
60.000
41.000
60.000
56.000
55.000
55.000
60.000
57.000
65.000
61.000
48.000
42.000
67.000
61.000
62.000
51.000
55.000
39.000
57.000
53.000
36.000
52.000
50.000
59.000
65.000
55.000
48.000
55.000
43.000
49.000
44.000
59.000
44.000
50.000
45.000
62.000
39.000
48.000
37.000
45.000
48.000
47.000
41.000
56.000
51.000
43.000
46.000
35.000
61.000
44.000
48.000
44.000
50.000
43.000
43.000
45.000
36.000
50.000
39.000
34.000
41.000
32.000
38.000
43.000
33.000
33.000
43.000
37.000
43.000
33.000
38.000
43.000
36.000
41.000
43.000
33.000
36.000
34.000
26.000
41.000
28.000
24.000
36.000
54.000
40.000
40.000
24.000
24.000
25.000
35.000
26.000
23.000
35.000
31.000
30.000
21.000
34.000
28.000
30.000
35.000
34.000
26.000
25.000
31.000
41.000
29.000
24.000
22.000
26.000
34.000
26.000
18.000
14.000
29.000
21.000
17.000
24.000
25.000
23.000
15.000
18.000
21.000
24.000
17.000
16.000
23.000
15.000
13.000
10.000
21.000
14.000
16.000
14.000
16.000
9.000
15.000
14.000
22.000
12.000
6.000
15.000
9.000
17.000
10.000
9.000
9.000
13.000
20.000
15.000
8.000
12.000
16.000
17.000
6.000
8.000
7.000
8.000
7.000
9.000
3.000
14.000
7.000
11.000
9.000
8.000
5.000
6.000
3.000
5.000
6.000
5.000
9.000
4.000
5.000
4.000
3.000
4.000
5.000
2.000
0.000
0.000
0.000
1.000
3.000
0.000
0.000
0.000
0.000
0.000
0.000
0.000
0.000
0.000
0.000
0.000
0.000
0.000
0.000
0.000
0.000
0.000
0.000
0.000
0.000
0.000
0.000
0.000
0.000
0.000
0.000
0.000
0.000
0.000
0.000
0.000
0.000
0.000
0.000
0.000
0.000
0.000
0.000
0.000
0.000
0.000
0.000
0.000
0.000
1.000
0.000
0.000
0.000
0.000
0.000
0.000
0.000
0.000
0.000
0.000
0.000
0.000
0.000
0.000
0.000
0.000
0.000
0.000
0.000
0.000
0.000
0.000
0.000
0.000
0.000
0.000
0.000
0.000
0.000
0.000
0.000
0.000
0.000
0.000
0.000
0.000
0.000
0.000
0.000
0.000
0.000
0.000
0.000
0.000
0.000
0.000
0.000
0.000
0.000
0.000
0.000
0.000
0.000
0.000
0.000
0.000
0.000
0.000
0.000
0.000
0.000
0.000
0.000
0.000
0.000
0.000
0.000
0.000
0.000
0.000
0.000
0.000
0.000
0.000
0.000
0.000
0.000
0.000
0.000
0.000
0.000
0.000
0.000
0.000
0.000
0.000
0.000
0.000
0.000
0.000
0.000
0.000
0.000
0.000
0.000
0.000
0.000
0.000
0.000
0.000
0.000
0.000
0.000
0.000
0.000
0.000
0.000
0.000
0.000
0.000
0.000
0.000
0.000
0.000
0.000
0.000
0.000
0.000
0.000
0.000
0.000
0.000
0.000
0.000
0.000
0.000
0.000
0.000
0.000
0.000
0.000
0.000
0.000
0.000
0.000
0.000
0.000
0.000
0.000
0.000
0.000
0.000
0.000
0.000
0.000
0.000
0.000
0.000
0.000
0.000
0.000
0.000
0.000
0.000
0.000
0.000
0.000
0.000
0.000
0.000
0.000
0.000
0.000
0.000
0.000
0.000
0.000
0.000
0.000
0.000
0.000
0.000
0.000
0.000
0.000
0.000
0.000
0.000
0.000
0.000
0.000
0.000
0.000
0.000
0.000
0.000
0.000
0.000
0.000
0.000
0.000
0.000
0.000
0.000
0.000
0.000
0.000
0.000
0.000
0.000
0.000
0.000
0.000
0.000
0.000
0.000
0.000
0.000
0.000
0.000
0.000
0.000
0.000
0.000
0.000
0.000
0.000
0.000
0.000
0.000
0.000
0.000
0.000
0.000
0.000
0.000
0.000
0.000
0.000
0.000
0.000
0.000
0.000
#ENDOFDATA   :