File: data/SEM-data_2024/artifact_surfaces/P5-1843_artifact_001_analysis_mw_region/spectrum.emsa
#FORMAT      : EMSA/MAS Spectral Data File
#VERSION     : 1.0
#TITLE       : EDS Spectrum
#DATE        : 19-SEP-2024
#TIME        : 11:20
#OWNER       : Thermo Fisher Scientific Inc.
#NPOINTS     : 2048.
#NCOLUMNS    : 1.
#XUNITS      : eV
#YUNITS      : Counts
#DATATYPE    : Y
#XPERCHAN    : 9.933
#OFFSET      : -44.878
#XLABEL      : Energy
#YLABEL      : Counts
#SIGNALTYPE  : EDS
#BEAMKV      : 15.000
#AZIMANGLE-dg: 0.0
#ELEVANGLE-dg: 28.5
#LIVETIME    : 32.974
#REALTIME    : 40.761
#EDSDET      : SDUTW
##MNFWHM     : 126.3
##INSTRUMENT : MVE075582-10647-L
##SLOWTPEAK  : 0.000004000
##FASTTPEAK  : 0.000000100
##OPTICALWD  : 0.005500000
##WD         : 0.009952556
##SDDAREA    : 0.000025
##CCORR      : 260.454
##SCORR      : LIN
#SPECTRUM    : Spectral Data Starts Here
0.000
0.000
0.000
0.000
0.000
0.000
0.000
77.000
75.000
46.000
59.000
66.000
61.000
120.000
274.000
616.000
777.000
614.000
224.000
139.000
164.000
211.000
254.000
254.000
330.000
869.000
2703.000
6804.000
10386.000
8153.000
3176.000
607.000
201.000
205.000
198.000
239.000
390.000
491.000
474.000
312.000
166.000
124.000
119.000
125.000
101.000
123.000
122.000
103.000
124.000
121.000
151.000
176.000
294.000
472.000
754.000
635.000
366.000
191.000
169.000
146.000
135.000
132.000
170.000
220.000
305.000
384.000
321.000
200.000
154.000
165.000
177.000
165.000
172.000
234.000
496.000
1098.000
1632.000
1624.000
1197.000
664.000
348.000
195.000
185.000
164.000
184.000
329.000
910.000
2332.000
4647.000
6477.000
6426.000
4361.000
2106.000
919.000
488.000
299.000
196.000
117.000
111.000
106.000
84.000
109.000
107.000
135.000
130.000
95.000
83.000
87.000
85.000
69.000
82.000
72.000
77.000
73.000
65.000
77.000
75.000
77.000
94.000
91.000
84.000
85.000
99.000
66.000
84.000
73.000
71.000
72.000
79.000
59.000
58.000
69.000
92.000
87.000
83.000
87.000
74.000
67.000
79.000
52.000
62.000
45.000
53.000
53.000
53.000
63.000
50.000
63.000
46.000
54.000
52.000
72.000
59.000
62.000
66.000
46.000
38.000
46.000
49.000
55.000
63.000
59.000
38.000
68.000
72.000
86.000
125.000
128.000
179.000
197.000
199.000
140.000
90.000
61.000
46.000
55.000
50.000
51.000
48.000
39.000
66.000
52.000
53.000
90.000
78.000
75.000
98.000
100.000
103.000
91.000
63.000
62.000
43.000
35.000
42.000
40.000
42.000
40.000
41.000
38.000
36.000
33.000
34.000
49.000
47.000
42.000
37.000
33.000
36.000
35.000
32.000
34.000
32.000
37.000
31.000
36.000
37.000
37.000
33.000
36.000
28.000
33.000
37.000
34.000
31.000
31.000
44.000
49.000
67.000
50.000
48.000
52.000
37.000
32.000
46.000
33.000
34.000
39.000
24.000
25.000
30.000
24.000
27.000
27.000
36.000
28.000
35.000
34.000
47.000
33.000
28.000
31.000
37.000
28.000
23.000
34.000
27.000
34.000
34.000
27.000
24.000
29.000
23.000
28.000
22.000
23.000
23.000
22.000
31.000
28.000
19.000
27.000
31.000
26.000
39.000
23.000
21.000
29.000
25.000
26.000
20.000
32.000
13.000
25.000
24.000
25.000
23.000
20.000
21.000
21.000
16.000
19.000
20.000
32.000
36.000
25.000
29.000
30.000
31.000
26.000
23.000
25.000
25.000
26.000
21.000
21.000
21.000
28.000
20.000
23.000
9.000
15.000
18.000
18.000
23.000
22.000
29.000
25.000
39.000
58.000
83.000
132.000
190.000
201.000
224.000
198.000
188.000
138.000
94.000
76.000
38.000
38.000
28.000
23.000
14.000
19.000
15.000
15.000
22.000
12.000
18.000
14.000
23.000
22.000
19.000
22.000
21.000
14.000
15.000
14.000
24.000
22.000
31.000
30.000
27.000
42.000
37.000
32.000
41.000
41.000
34.000
27.000
16.000
15.000
16.000
17.000
15.000
16.000
12.000
12.000
16.000
17.000
15.000
16.000
17.000
14.000
14.000
8.000
13.000
10.000
18.000
7.000
13.000
19.000
11.000
12.000
12.000
18.000
12.000
18.000
12.000
11.000
16.000
18.000
11.000
11.000
16.000
9.000
10.000
12.000
15.000
6.000
13.000
18.000
11.000
9.000
13.000
18.000
12.000
8.000
8.000
8.000
5.000
8.000
10.000
13.000
7.000
11.000
14.000
6.000
11.000
14.000
11.000
11.000
10.000
5.000
15.000
7.000
12.000
11.000
17.000
6.000
13.000
19.000
7.000
9.000
10.000
10.000
12.000
8.000
10.000
17.000
10.000
6.000
9.000
12.000
17.000
7.000
8.000
7.000
13.000
8.000
3.000
13.000
6.000
9.000
7.000
15.000
11.000
16.000
4.000
5.000
12.000
7.000
11.000
10.000
10.000
10.000
9.000
5.000
9.000
8.000
5.000
8.000
8.000
6.000
14.000
9.000
8.000
8.000
7.000
6.000
8.000
10.000
5.000
11.000
8.000
6.000
5.000
3.000
17.000
7.000
7.000
6.000
7.000
8.000
6.000
10.000
9.000
2.000
4.000
4.000
3.000
5.000
6.000
6.000
6.000
4.000
5.000
8.000
4.000
3.000
7.000
8.000
4.000
6.000
3.000
6.000
5.000
7.000
4.000
4.000
3.000
4.000
6.000
4.000
3.000
2.000
4.000
6.000
8.000
3.000
2.000
4.000
2.000
4.000
6.000
5.000
6.000
4.000
8.000
5.000
4.000
3.000
4.000
2.000
3.000
3.000
4.000
1.000
1.000
3.000
3.000
4.000
6.000
5.000
1.000
1.000
4.000
3.000
4.000
3.000
5.000
5.000
10.000
2.000
5.000
1.000
2.000
0.000
3.000
2.000
2.000
8.000
2.000
3.000
3.000
2.000
2.000
3.000
3.000
3.000
3.000
1.000
2.000
2.000
7.000
4.000
2.000
3.000
3.000
6.000
2.000
4.000
0.000
2.000
3.000
2.000
3.000
5.000
4.000
0.000
2.000
0.000
4.000
1.000
2.000
3.000
1.000
4.000
5.000
2.000
2.000
2.000
4.000
2.000
1.000
1.000
3.000
2.000
0.000
1.000
0.000
4.000
2.000
1.000
1.000
3.000
3.000
2.000
3.000
2.000
4.000
0.000
2.000
1.000
1.000
1.000
2.000
3.000
1.000
1.000
3.000
1.000
0.000
2.000
2.000
3.000
2.000
1.000
3.000
2.000
2.000
2.000
2.000
0.000
1.000
2.000
2.000
3.000
0.000
0.000
3.000
1.000
2.000
0.000
2.000
1.000
0.000
1.000
1.000
1.000
2.000
2.000
0.000
0.000
1.000
1.000
1.000
0.000
0.000
0.000
1.000
0.000
0.000
2.000
0.000
0.000
1.000
0.000
1.000
0.000
0.000
0.000
0.000
2.000
0.000
1.000
0.000
1.000
0.000
0.000
0.000
0.000
0.000
0.000
0.000
1.000
0.000
1.000
0.000
0.000
0.000
0.000
0.000
2.000
0.000
1.000
0.000
0.000
1.000
0.000
0.000
0.000
0.000
0.000
0.000
0.000
0.000
0.000
0.000
0.000
0.000
0.000
0.000
0.000
0.000
0.000
0.000
0.000
0.000
0.000
0.000
0.000
0.000
0.000
0.000
0.000
0.000
0.000
0.000
0.000
0.000
0.000
0.000
0.000
0.000
0.000
0.000
0.000
0.000
0.000
0.000
0.000
0.000
0.000
0.000
0.000
0.000
0.000
0.000
0.000
0.000
0.000
0.000
0.000
0.000
0.000
0.000
0.000
0.000
0.000
0.000
0.000
0.000
0.000
0.000
0.000
0.000
0.000
0.000
0.000
0.000
0.000
0.000
0.000
0.000
0.000
0.000
0.000
0.000
0.000
0.000
0.000
0.000
0.000
0.000
0.000
0.000
0.000
0.000
0.000
0.000
0.000
0.000
0.000
0.000
0.000
0.000
0.000
0.000
0.000
0.000
0.000
0.000
0.000
0.000
0.000
0.000
0.000
0.000
0.000
0.000
0.000
0.000
0.000
0.000
0.000
0.000
0.000
0.000
0.000
0.000
0.000
0.000
0.000
0.000
0.000
0.000
0.000
0.000
0.000
0.000
0.000
0.000
0.000
0.000
0.000
0.000
0.000
0.000
0.000
0.000
0.000
0.000
0.000
0.000
0.000
0.000
0.000
0.000
0.000
0.000
0.000
0.000
0.000
0.000
0.000
0.000
0.000
0.000
0.000
0.000
0.000
0.000
0.000
0.000
0.000
0.000
0.000
0.000
0.000
0.000
0.000
0.000
0.000
0.000
0.000
0.000
0.000
0.000
0.000
0.000
0.000
0.000
0.000
0.000
0.000
0.000
0.000
0.000
0.000
0.000
0.000
0.000
0.000
0.000
0.000
0.000
0.000
0.000
0.000
0.000
0.000
0.000
0.000
0.000
0.000
0.000
0.000
0.000
0.000
0.000
0.000
0.000
0.000
0.000
0.000
0.000
0.000
0.000
0.000
0.000
0.000
0.000
0.000
0.000
0.000
0.000
0.000
0.000
0.000
0.000
0.000
0.000
0.000
0.000
0.000
0.000
0.000
0.000
0.000
0.000
0.000
0.000
0.000
0.000
0.000
0.000
0.000
0.000
0.000
0.000
0.000
0.000
0.000
0.000
0.000
0.000
0.000
0.000
0.000
0.000
0.000
0.000
0.000
0.000
0.000
0.000
0.000
0.000
0.000
0.000
0.000
0.000
0.000
0.000
0.000
0.000
0.000
0.000
0.000
0.000
0.000
0.000
0.000
0.000
0.000
0.000
0.000
0.000
0.000
0.000
0.000
0.000
0.000
0.000
0.000
0.000
0.000
0.000
0.000
0.000
0.000
0.000
#ENDOFDATA   :