File: data/SEM-data_2024/artifact_surfaces/P1-336_artifact_lw_analysis_2_region/spectrum.emsa
#FORMAT      : EMSA/MAS Spectral Data File
#VERSION     : 1.0
#TITLE       : EDS Spectrum
#DATE        : 19-SEP-2024
#TIME        : 11:20
#OWNER       : Thermo Fisher Scientific Inc.
#NPOINTS     : 2048.
#NCOLUMNS    : 1.
#XUNITS      : eV
#YUNITS      : Counts
#DATATYPE    : Y
#XPERCHAN    : 9.933
#OFFSET      : -44.878
#XLABEL      : Energy
#YLABEL      : Counts
#SIGNALTYPE  : EDS
#BEAMKV      : 15.000
#AZIMANGLE-dg: 0.0
#ELEVANGLE-dg: 28.5
#LIVETIME    : 30.341
#REALTIME    : 38.393
#EDSDET      : SDUTW
##MNFWHM     : 126.3
##INSTRUMENT : MVE075582-10647-L
##SLOWTPEAK  : 0.000004000
##FASTTPEAK  : 0.000000100
##OPTICALWD  : 0.005500000
##WD         : 0.007163208
##SDDAREA    : 0.000025
##CCORR      : 260.454
##SCORR      : LIN
#SPECTRUM    : Spectral Data Starts Here
0.000
0.000
0.000
0.000
0.000
0.000
0.000
79.000
55.000
38.000
32.000
35.000
35.000
63.000
113.000
237.000
294.000
219.000
119.000
120.000
127.000
177.000
208.000
204.000
307.000
801.000
2469.000
6331.000
9793.000
7533.000
2904.000
582.000
109.000
84.000
76.000
100.000
124.000
182.000
140.000
113.000
80.000
70.000
108.000
102.000
88.000
88.000
110.000
102.000
86.000
112.000
125.000
163.000
206.000
332.000
451.000
364.000
255.000
141.000
131.000
112.000
117.000
126.000
117.000
202.000
243.000
264.000
245.000
207.000
152.000
134.000
155.000
150.000
135.000
212.000
332.000
651.000
965.000
1075.000
780.000
460.000
256.000
193.000
176.000
164.000
214.000
442.000
1169.000
3222.000
6567.000
9368.000
9146.000
6136.000
3003.000
1241.000
648.000
410.000
259.000
149.000
92.000
58.000
68.000
72.000
80.000
76.000
69.000
77.000
59.000
69.000
53.000
67.000
69.000
64.000
75.000
68.000
72.000
84.000
88.000
93.000
105.000
88.000
81.000
84.000
55.000
65.000
74.000
58.000
60.000
51.000
75.000
48.000
55.000
66.000
58.000
68.000
79.000
85.000
77.000
61.000
77.000
60.000
70.000
69.000
52.000
55.000
59.000
36.000
52.000
48.000
38.000
48.000
66.000
63.000
45.000
53.000
46.000
45.000
60.000
44.000
55.000
47.000
47.000
60.000
68.000
64.000
41.000
69.000
64.000
83.000
135.000
110.000
111.000
110.000
63.000
60.000
62.000
46.000
47.000
46.000
54.000
55.000
50.000
57.000
65.000
61.000
46.000
70.000
89.000
88.000
90.000
88.000
54.000
59.000
51.000
42.000
37.000
32.000
44.000
43.000
43.000
39.000
36.000
50.000
39.000
37.000
49.000
55.000
38.000
40.000
42.000
44.000
35.000
45.000
34.000
26.000
32.000
38.000
40.000
45.000
34.000
33.000
40.000
28.000
32.000
38.000
31.000
42.000
51.000
40.000
37.000
35.000
38.000
39.000
37.000
29.000
36.000
36.000
37.000
30.000
36.000
30.000
43.000
33.000
34.000
27.000
30.000
38.000
33.000
37.000
32.000
26.000
24.000
30.000
24.000
26.000
35.000
34.000
32.000
26.000
33.000
25.000
26.000
23.000
26.000
27.000
24.000
23.000
31.000
30.000
28.000
22.000
34.000
19.000
28.000
35.000
31.000
17.000
20.000
34.000
24.000
34.000
22.000
26.000
24.000
19.000
29.000
27.000
23.000
19.000
25.000
26.000
21.000
26.000
25.000
18.000
23.000
38.000
30.000
23.000
24.000
22.000
24.000
18.000
25.000
12.000
27.000
20.000
25.000
20.000
18.000
16.000
22.000
15.000
21.000
16.000
31.000
20.000
16.000
19.000
41.000
35.000
56.000
57.000
75.000
86.000
78.000
81.000
58.000
38.000
34.000
34.000
28.000
22.000
18.000
16.000
16.000
18.000
18.000
27.000
13.000
22.000
18.000
13.000
7.000
17.000
7.000
17.000
28.000
13.000
14.000
18.000
17.000
18.000
18.000
20.000
26.000
15.000
24.000
18.000
30.000
23.000
18.000
19.000
30.000
14.000
16.000
14.000
23.000
14.000
13.000
7.000
13.000
12.000
13.000
20.000
14.000
20.000
8.000
14.000
10.000
12.000
15.000
20.000
8.000
11.000
2.000
17.000
14.000
16.000
14.000
13.000
11.000
12.000
11.000
11.000
15.000
11.000
13.000
7.000
9.000
15.000
13.000
11.000
8.000
13.000
7.000
13.000
17.000
8.000
11.000
14.000
14.000
10.000
13.000
10.000
13.000
10.000
18.000
16.000
12.000
11.000
13.000
11.000
9.000
13.000
16.000
5.000
10.000
7.000
15.000
11.000
16.000
8.000
10.000
14.000
12.000
7.000
8.000
10.000
10.000
11.000
11.000
10.000
12.000
10.000
5.000
3.000
9.000
11.000
10.000
9.000
12.000
6.000
16.000
8.000
7.000
8.000
9.000
8.000
9.000
7.000
6.000
15.000
13.000
6.000
10.000
10.000
9.000
10.000
9.000
10.000
6.000
9.000
5.000
7.000
8.000
12.000
11.000
9.000
11.000
5.000
5.000
5.000
4.000
12.000
7.000
3.000
8.000
8.000
7.000
10.000
4.000
5.000
6.000
7.000
7.000
4.000
6.000
5.000
7.000
6.000
9.000
6.000
7.000
8.000
8.000
5.000
6.000
7.000
7.000
10.000
5.000
8.000
9.000
5.000
8.000
7.000
7.000
3.000
8.000
4.000
9.000
6.000
4.000
6.000
6.000
9.000
6.000
7.000
3.000
7.000
7.000
6.000
2.000
5.000
5.000
6.000
5.000
6.000
5.000
4.000
3.000
5.000
4.000
4.000
8.000
4.000
4.000
3.000
3.000
5.000
4.000
4.000
3.000
3.000
5.000
5.000
5.000
7.000
3.000
4.000
9.000
7.000
8.000
5.000
3.000
2.000
5.000
8.000
6.000
2.000
4.000
7.000
6.000
3.000
8.000
3.000
7.000
5.000
1.000
3.000
5.000
2.000
1.000
2.000
8.000
1.000
1.000
3.000
2.000
3.000
6.000
5.000
0.000
2.000
4.000
1.000
9.000
2.000
4.000
1.000
3.000
5.000
9.000
2.000
1.000
3.000
2.000
5.000
2.000
2.000
2.000
4.000
2.000
1.000
7.000
5.000
4.000
5.000
3.000
2.000
4.000
0.000
7.000
3.000
1.000
2.000
2.000
2.000
3.000
4.000
3.000
4.000
2.000
1.000
4.000
0.000
4.000
1.000
1.000
2.000
0.000
3.000
2.000
2.000
2.000
2.000
4.000
2.000
2.000
0.000
3.000
1.000
1.000
2.000
1.000
4.000
0.000
3.000
0.000
1.000
1.000
0.000
3.000
2.000
0.000
3.000
0.000
0.000
0.000
1.000
1.000
1.000
2.000
1.000
1.000
2.000
1.000
0.000
0.000
3.000
1.000
0.000
2.000
3.000
0.000
1.000
1.000
1.000
1.000
5.000
3.000
0.000
1.000
0.000
1.000
1.000
0.000
1.000
1.000
1.000
2.000
0.000
0.000
0.000
1.000
2.000
1.000
1.000
1.000
0.000
1.000
0.000
0.000
1.000
0.000
2.000
1.000
1.000
1.000
0.000
0.000
2.000
0.000
0.000
2.000
1.000
1.000
0.000
0.000
0.000
0.000
0.000
0.000
0.000
1.000
0.000
0.000
0.000
1.000
0.000
0.000
0.000
0.000
0.000
0.000
0.000
0.000
0.000
0.000
0.000
0.000
0.000
0.000
0.000
0.000
0.000
0.000
0.000
0.000
0.000
0.000
0.000
0.000
0.000
0.000
0.000
0.000
0.000
0.000
0.000
0.000
0.000
1.000
0.000
0.000
0.000
0.000
0.000
0.000
0.000
0.000
0.000
0.000
0.000
0.000
0.000
0.000
0.000
0.000
0.000
0.000
0.000
0.000
0.000
0.000
0.000
0.000
0.000
0.000
0.000
0.000
0.000
0.000
0.000
0.000
0.000
0.000
0.000
0.000
0.000
0.000
0.000
0.000
0.000
0.000
0.000
0.000
0.000
0.000
0.000
0.000
0.000
0.000
0.000
0.000
0.000
0.000
0.000
0.000
0.000
0.000
0.000
0.000
0.000
0.000
0.000
0.000
0.000
0.000
0.000
0.000
0.000
0.000
0.000
0.000
0.000
0.000
0.000
0.000
0.000
0.000
0.000
0.000
0.000
0.000
0.000
0.000
0.000
0.000
0.000
0.000
0.000
0.000
0.000
0.000
0.000
0.000
0.000
0.000
0.000
0.000
0.000
0.000
0.000
0.000
0.000
0.000
0.000
0.000
0.000
0.000
0.000
0.000
0.000
0.000
0.000
0.000
0.000
0.000
0.000
0.000
0.000
0.000
0.000
0.000
0.000
0.000
0.000
0.000
0.000
0.000
0.000
0.000
0.000
0.000
0.000
0.000
0.000
0.000
0.000
0.000
0.000
0.000
0.000
0.000
0.000
0.000
0.000
0.000
0.000
0.000
0.000
0.000
0.000
0.000
0.000
0.000
0.000
0.000
0.000
0.000
0.000
0.000
0.000
0.000
0.000
0.000
0.000
0.000
0.000
0.000
0.000
0.000
0.000
0.000
0.000
0.000
0.000
0.000
0.000
0.000
0.000
0.000
0.000
0.000
0.000
0.000
0.000
0.000
0.000
0.000
0.000
0.000
0.000
0.000
0.000
0.000
0.000
0.000
0.000
0.000
0.000
0.000
0.000
0.000
0.000
0.000
0.000
0.000
0.000
0.000
0.000
0.000
0.000
0.000
0.000
0.000
0.000
0.000
0.000
0.000
0.000
0.000
0.000
0.000
0.000
0.000
0.000
0.000
0.000
0.000
0.000
0.000
0.000
0.000
0.000
0.000
0.000
0.000
0.000
0.000
0.000
0.000
0.000
0.000
0.000
0.000
0.000
0.000
0.000
0.000
0.000
0.000
0.000
0.000
#ENDOFDATA   :