File: data/SEM-data_2024/artifact_surfaces/P5-1777_artifact_002_analysis_mw_region/spectrum.emsa
#FORMAT      : EMSA/MAS Spectral Data File
#VERSION     : 1.0
#TITLE       : EDS Spectrum
#DATE        : 19-SEP-2024
#TIME        : 11:20
#OWNER       : Thermo Fisher Scientific Inc.
#NPOINTS     : 2048.
#NCOLUMNS    : 1.
#XUNITS      : eV
#YUNITS      : Counts
#DATATYPE    : Y
#XPERCHAN    : 9.933
#OFFSET      : -44.878
#XLABEL      : Energy
#YLABEL      : Counts
#SIGNALTYPE  : EDS
#BEAMKV      : 15.000
#AZIMANGLE-dg: 0.0
#ELEVANGLE-dg: 28.5
#LIVETIME    : 29.770
#REALTIME    : 37.560
#EDSDET      : SDUTW
##MNFWHM     : 126.3
##INSTRUMENT : MVE075582-10647-L
##SLOWTPEAK  : 0.000004000
##FASTTPEAK  : 0.000000100
##OPTICALWD  : 0.005500000
##WD         : 0.0100318
##SDDAREA    : 0.000025
##CCORR      : 260.454
##SCORR      : LIN
#SPECTRUM    : Spectral Data Starts Here
0.000
0.000
0.000
0.000
0.000
0.000
0.000
73.000
65.000
40.000
57.000
44.000
59.000
84.000
158.000
318.000
411.000
336.000
163.000
146.000
173.000
209.000
227.000
244.000
372.000
915.000
2837.000
7037.000
10687.000
8551.000
3313.000
728.000
224.000
204.000
218.000
252.000
378.000
558.000
465.000
329.000
186.000
129.000
105.000
112.000
124.000
105.000
100.000
120.000
123.000
131.000
126.000
199.000
296.000
638.000
831.000
777.000
378.000
227.000
148.000
128.000
145.000
111.000
152.000
157.000
241.000
259.000
249.000
192.000
147.000
135.000
130.000
142.000
155.000
226.000
482.000
1018.000
1453.000
1575.000
1166.000
620.000
300.000
197.000
162.000
159.000
175.000
337.000
927.000
2434.000
4786.000
6805.000
6387.000
4434.000
2199.000
866.000
481.000
332.000
250.000
169.000
98.000
80.000
80.000
93.000
118.000
146.000
110.000
117.000
108.000
76.000
71.000
78.000
86.000
85.000
60.000
68.000
80.000
86.000
89.000
81.000
84.000
101.000
82.000
85.000
81.000
65.000
85.000
70.000
71.000
64.000
63.000
71.000
60.000
69.000
95.000
98.000
70.000
90.000
75.000
54.000
46.000
59.000
64.000
53.000
53.000
72.000
56.000
48.000
51.000
53.000
51.000
54.000
50.000
59.000
57.000
57.000
55.000
62.000
61.000
48.000
54.000
58.000
52.000
43.000
56.000
60.000
68.000
72.000
96.000
112.000
172.000
162.000
162.000
114.000
85.000
73.000
51.000
45.000
69.000
40.000
48.000
55.000
51.000
52.000
55.000
69.000
59.000
68.000
77.000
85.000
93.000
63.000
56.000
49.000
41.000
48.000
30.000
35.000
36.000
38.000
46.000
53.000
47.000
39.000
38.000
39.000
49.000
37.000
36.000
40.000
34.000
36.000
40.000
32.000
41.000
45.000
40.000
35.000
43.000
33.000
31.000
29.000
30.000
36.000
28.000
42.000
37.000
46.000
50.000
56.000
60.000
57.000
57.000
40.000
49.000
42.000
30.000
32.000
29.000
39.000
36.000
32.000
29.000
27.000
28.000
26.000
30.000
33.000
42.000
41.000
30.000
28.000
33.000
28.000
38.000
28.000
16.000
27.000
32.000
26.000
33.000
33.000
21.000
26.000
28.000
31.000
34.000
22.000
24.000
29.000
33.000
33.000
30.000
21.000
26.000
25.000
31.000
29.000
17.000
23.000
19.000
24.000
21.000
22.000
22.000
28.000
25.000
25.000
21.000
25.000
21.000
21.000
20.000
23.000
22.000
14.000
29.000
42.000
34.000
34.000
43.000
43.000
42.000
26.000
34.000
28.000
19.000
13.000
20.000
28.000
14.000
19.000
15.000
34.000
20.000
23.000
19.000
23.000
32.000
30.000
36.000
77.000
87.000
162.000
211.000
230.000
247.000
251.000
206.000
158.000
114.000
66.000
44.000
27.000
23.000
16.000
10.000
23.000
19.000
18.000
13.000
13.000
20.000
13.000
26.000
15.000
9.000
18.000
27.000
20.000
18.000
19.000
22.000
27.000
18.000
29.000
32.000
33.000
45.000
51.000
42.000
30.000
36.000
16.000
23.000
21.000
21.000
14.000
15.000
20.000
13.000
15.000
15.000
12.000
12.000
8.000
15.000
10.000
19.000
17.000
8.000
15.000
13.000
19.000
11.000
15.000
14.000
13.000
15.000
6.000
8.000
9.000
11.000
12.000
17.000
11.000
9.000
9.000
16.000
20.000
9.000
11.000
7.000
18.000
13.000
11.000
9.000
11.000
13.000
10.000
9.000
7.000
10.000
13.000
8.000
12.000
15.000
11.000
12.000
12.000
11.000
18.000
9.000
5.000
7.000
11.000
12.000
10.000
12.000
4.000
9.000
9.000
10.000
11.000
7.000
10.000
5.000
9.000
10.000
11.000
11.000
10.000
10.000
15.000
7.000
5.000
9.000
15.000
8.000
11.000
11.000
12.000
12.000
6.000
8.000
9.000
5.000
9.000
6.000
6.000
9.000
11.000
7.000
10.000
13.000
4.000
9.000
6.000
8.000
16.000
7.000
4.000
9.000
9.000
13.000
12.000
5.000
8.000
10.000
9.000
11.000
7.000
2.000
5.000
9.000
10.000
6.000
5.000
9.000
8.000
3.000
11.000
7.000
11.000
8.000
3.000
5.000
8.000
7.000
10.000
12.000
2.000
6.000
5.000
6.000
8.000
8.000
6.000
5.000
5.000
5.000
5.000
4.000
6.000
2.000
4.000
12.000
5.000
10.000
7.000
3.000
10.000
7.000
4.000
6.000
3.000
6.000
5.000
5.000
4.000
5.000
8.000
8.000
10.000
6.000
6.000
6.000
8.000
4.000
1.000
6.000
8.000
5.000
5.000
5.000
4.000
7.000
4.000
6.000
3.000
3.000
5.000
6.000
4.000
5.000
6.000
8.000
6.000
6.000
4.000
4.000
3.000
3.000
3.000
4.000
5.000
6.000
4.000
3.000
5.000
2.000
7.000
3.000
6.000
5.000
4.000
3.000
1.000
0.000
5.000
4.000
2.000
2.000
5.000
4.000
4.000
1.000
2.000
4.000
7.000
2.000
6.000
1.000
5.000
0.000
1.000
2.000
3.000
5.000
1.000
1.000
3.000
2.000
3.000
0.000
2.000
3.000
2.000
0.000
6.000
8.000
6.000
2.000
7.000
1.000
2.000
3.000
0.000
2.000
4.000
3.000
3.000
0.000
2.000
1.000
2.000
1.000
2.000
1.000
3.000
0.000
2.000
3.000
3.000
0.000
0.000
0.000
0.000
5.000
1.000
3.000
1.000
2.000
2.000
4.000
3.000
2.000
2.000
5.000
2.000
0.000
2.000
0.000
0.000
3.000
0.000
0.000
3.000
0.000
0.000
0.000
1.000
2.000
4.000
2.000
2.000
1.000
1.000
1.000
0.000
2.000
0.000
1.000
1.000
0.000
1.000
0.000
1.000
0.000
0.000
1.000
0.000
0.000
3.000
0.000
2.000
1.000
1.000
1.000
1.000
0.000
0.000
1.000
0.000
2.000
0.000
0.000
1.000
0.000
0.000
1.000
1.000
1.000
0.000
0.000
0.000
2.000
1.000
0.000
0.000
0.000
0.000
0.000
0.000
0.000
0.000
0.000
0.000
0.000
0.000
0.000
0.000
0.000
0.000
0.000
0.000
0.000
0.000
0.000
0.000
0.000
0.000
0.000
0.000
0.000
0.000
0.000
0.000
0.000
0.000
0.000
0.000
0.000
0.000
0.000
0.000
0.000
0.000
0.000
0.000
0.000
0.000
0.000
0.000
0.000
0.000
0.000
0.000
0.000
0.000
0.000
0.000
0.000
0.000
0.000
0.000
0.000
0.000
0.000
0.000
0.000
0.000
0.000
0.000
0.000
0.000
0.000
0.000
0.000
0.000
0.000
0.000
0.000
0.000
0.000
0.000
0.000
0.000
0.000
0.000
0.000
0.000
0.000
0.000
0.000
0.000
0.000
0.000
0.000
0.000
0.000
0.000
0.000
0.000
0.000
0.000
0.000
0.000
0.000
0.000
0.000
0.000
0.000
0.000
0.000
0.000
0.000
0.000
0.000
0.000
0.000
0.000
0.000
0.000
0.000
0.000
0.000
0.000
0.000
0.000
0.000
0.000
0.000
0.000
0.000
0.000
0.000
0.000
0.000
0.000
0.000
0.000
0.000
0.000
0.000
0.000
0.000
0.000
0.000
0.000
0.000
0.000
0.000
0.000
0.000
0.000
0.000
0.000
0.000
0.000
0.000
0.000
0.000
0.000
0.000
0.000
0.000
0.000
0.000
0.000
0.000
0.000
0.000
0.000
0.000
0.000
0.000
0.000
0.000
0.000
0.000
0.000
0.000
0.000
0.000
0.000
0.000
0.000
0.000
0.000
0.000
0.000
0.000
0.000
0.000
0.000
0.000
0.000
0.000
0.000
0.000
0.000
0.000
0.000
0.000
0.000
0.000
0.000
0.000
0.000
0.000
0.000
0.000
0.000
0.000
0.000
0.000
0.000
0.000
0.000
0.000
0.000
0.000
0.000
0.000
0.000
0.000
0.000
0.000
0.000
0.000
0.000
0.000
0.000
0.000
0.000
0.000
0.000
0.000
0.000
0.000
0.000
0.000
0.000
0.000
0.000
0.000
0.000
0.000
0.000
0.000
0.000
0.000
0.000
0.000
0.000
0.000
0.000
0.000
0.000
0.000
0.000
0.000
0.000
0.000
0.000
0.000
0.000
0.000
0.000
0.000
0.000
0.000
0.000
0.000
0.000
0.000
0.000
0.000
0.000
0.000
0.000
0.000
0.000
0.000
0.000
0.000
0.000
0.000
0.000
0.000
0.000
0.000
0.000
0.000
0.000
0.000
0.000
0.000
0.000
0.000
0.000
0.000
0.000
0.000
0.000
0.000
0.000
0.000
0.000
0.000
0.000
0.000
0.000
0.000
0.000
0.000
0.000
0.000
0.000
0.000
0.000
0.000
0.000
0.000
0.000
0.000
#ENDOFDATA   :