File: data/SEM-data_2024/artifact_surfaces/P2-791_artifact_001_analysis_lw_region/spectrum.emsa
#FORMAT      : EMSA/MAS Spectral Data File
#VERSION     : 1.0
#TITLE       : EDS Spectrum
#DATE        : 19-SEP-2024
#TIME        : 11:20
#OWNER       : Thermo Fisher Scientific Inc.
#NPOINTS     : 2048.
#NCOLUMNS    : 1.
#XUNITS      : eV
#YUNITS      : Counts
#DATATYPE    : Y
#XPERCHAN    : 9.933
#OFFSET      : -44.878
#XLABEL      : Energy
#YLABEL      : Counts
#SIGNALTYPE  : EDS
#BEAMKV      : 15.000
#AZIMANGLE-dg: 0.0
#ELEVANGLE-dg: 28.5
#LIVETIME    : 358.573
#REALTIME    : 418.591
#EDSDET      : SDUTW
##MNFWHM     : 126.3
##INSTRUMENT : MVE075582-10647-L
##SLOWTPEAK  : 0.000004000
##FASTTPEAK  : 0.000000100
##OPTICALWD  : 0.005500000
##WD         : 0.0151784
##SDDAREA    : 0.000025
##CCORR      : 260.454
##SCORR      : LIN
#SPECTRUM    : Spectral Data Starts Here
0.000
0.000
0.000
0.000
0.000
0.000
0.000
162.000
62.000
52.000
45.000
51.000
74.000
86.000
226.000
457.000
596.000
514.000
220.000
137.000
217.000
349.000
371.000
316.000
365.000
863.000
2441.000
6465.000
9987.000
7817.000
3005.000
603.000
154.000
100.000
129.000
157.000
223.000
239.000
259.000
161.000
122.000
102.000
128.000
99.000
128.000
120.000
119.000
116.000
112.000
125.000
152.000
262.000
482.000
937.000
1267.000
1089.000
618.000
282.000
144.000
108.000
110.000
122.000
125.000
149.000
184.000
196.000
213.000
172.000
147.000
128.000
129.000
133.000
177.000
251.000
577.000
1156.000
1754.000
1857.000
1477.000
689.000
368.000
211.000
174.000
149.000
204.000
348.000
981.000
2499.000
5145.000
7431.000
7180.000
4827.000
2335.000
1040.000
499.000
327.000
205.000
122.000
82.000
85.000
80.000
76.000
85.000
102.000
69.000
78.000
67.000
76.000
52.000
56.000
55.000
68.000
65.000
70.000
67.000
68.000
70.000
68.000
71.000
54.000
67.000
68.000
62.000
65.000
68.000
66.000
58.000
51.000
63.000
65.000
67.000
61.000
76.000
70.000
86.000
81.000
65.000
72.000
55.000
67.000
56.000
56.000
57.000
48.000
52.000
57.000
53.000
62.000
53.000
36.000
47.000
49.000
55.000
47.000
47.000
37.000
48.000
51.000
40.000
36.000
37.000
38.000
46.000
46.000
56.000
44.000
67.000
111.000
109.000
110.000
94.000
76.000
67.000
52.000
40.000
47.000
51.000
56.000
27.000
46.000
44.000
41.000
45.000
63.000
58.000
49.000
52.000
58.000
58.000
44.000
56.000
37.000
35.000
45.000
33.000
32.000
33.000
25.000
30.000
40.000
40.000
37.000
35.000
42.000
41.000
32.000
38.000
27.000
36.000
30.000
34.000
36.000
42.000
39.000
27.000
31.000
31.000
39.000
25.000
29.000
24.000
28.000
30.000
31.000
35.000
32.000
38.000
42.000
46.000
54.000
34.000
41.000
48.000
39.000
42.000
28.000
27.000
19.000
21.000
20.000
36.000
30.000
30.000
28.000
29.000
33.000
35.000
23.000
26.000
30.000
24.000
23.000
26.000
34.000
22.000
25.000
33.000
23.000
24.000
18.000
37.000
30.000
22.000
30.000
34.000
29.000
23.000
22.000
15.000
22.000
20.000
26.000
14.000
26.000
20.000
14.000
24.000
25.000
19.000
34.000
20.000
24.000
25.000
20.000
23.000
23.000
22.000
30.000
21.000
26.000
19.000
27.000
20.000
22.000
21.000
23.000
21.000
13.000
20.000
18.000
28.000
22.000
19.000
23.000
18.000
22.000
19.000
15.000
17.000
23.000
17.000
15.000
21.000
22.000
19.000
26.000
19.000
21.000
20.000
29.000
41.000
63.000
86.000
123.000
94.000
86.000
84.000
73.000
41.000
31.000
18.000
13.000
15.000
10.000
24.000
17.000
17.000
17.000
8.000
15.000
14.000
11.000
13.000
15.000
11.000
14.000
14.000
22.000
14.000
13.000
24.000
18.000
19.000
16.000
19.000
18.000
23.000
27.000
23.000
27.000
19.000
22.000
13.000
18.000
15.000
9.000
17.000
10.000
15.000
11.000
16.000
12.000
12.000
9.000
11.000
12.000
8.000
15.000
13.000
10.000
9.000
9.000
10.000
14.000
15.000
16.000
10.000
16.000
4.000
9.000
14.000
7.000
12.000
16.000
14.000
12.000
11.000
13.000
9.000
10.000
15.000
15.000
7.000
6.000
10.000
11.000
5.000
11.000
12.000
17.000
7.000
7.000
12.000
12.000
12.000
11.000
10.000
6.000
5.000
11.000
12.000
8.000
3.000
14.000
9.000
8.000
7.000
9.000
7.000
7.000
17.000
10.000
6.000
7.000
10.000
11.000
8.000
11.000
7.000
10.000
8.000
7.000
6.000
12.000
11.000
9.000
2.000
7.000
12.000
7.000
8.000
8.000
7.000
10.000
8.000
6.000
10.000
13.000
9.000
10.000
8.000
9.000
6.000
5.000
8.000
8.000
4.000
7.000
6.000
10.000
10.000
6.000
5.000
7.000
1.000
10.000
3.000
1.000
9.000
4.000
9.000
6.000
8.000
12.000
10.000
4.000
6.000
9.000
9.000
4.000
6.000
4.000
5.000
7.000
6.000
7.000
3.000
6.000
7.000
12.000
3.000
15.000
6.000
8.000
6.000
5.000
8.000
6.000
2.000
4.000
5.000
6.000
5.000
7.000
7.000
6.000
5.000
4.000
4.000
8.000
6.000
8.000
10.000
2.000
5.000
2.000
8.000
5.000
2.000
2.000
8.000
5.000
5.000
6.000
6.000
6.000
5.000
3.000
4.000
3.000
4.000
6.000
2.000
2.000
6.000
6.000
2.000
3.000
2.000
8.000
5.000
6.000
3.000
2.000
6.000
4.000
1.000
1.000
4.000
4.000
5.000
4.000
8.000
5.000
4.000
5.000
1.000
3.000
2.000
9.000
7.000
4.000
0.000
3.000
4.000
2.000
5.000
4.000
3.000
5.000
2.000
3.000
2.000
2.000
7.000
7.000
2.000
3.000
7.000
0.000
3.000
1.000
2.000
1.000
5.000
2.000
6.000
3.000
3.000
2.000
2.000
6.000
2.000
3.000
4.000
2.000
0.000
0.000
1.000
4.000
2.000
3.000
2.000
1.000
2.000
3.000
0.000
3.000
1.000
2.000
4.000
2.000
2.000
1.000
3.000
2.000
0.000
2.000
0.000
6.000
2.000
1.000
4.000
3.000
2.000
2.000
2.000
5.000
3.000
0.000
2.000
1.000
2.000
2.000
3.000
1.000
2.000
2.000
1.000
1.000
1.000
1.000
1.000
1.000
1.000
1.000
0.000
1.000
1.000
3.000
2.000
1.000
1.000
1.000
1.000
1.000
2.000
0.000
0.000
3.000
0.000
2.000
0.000
0.000
0.000
0.000
0.000
0.000
0.000
1.000
0.000
2.000
1.000
1.000
2.000
0.000
0.000
1.000
0.000
4.000
0.000
1.000
0.000
0.000
0.000
2.000
3.000
1.000
1.000
1.000
1.000
2.000
0.000
1.000
2.000
1.000
0.000
1.000
0.000
0.000
0.000
1.000
0.000
0.000
1.000
1.000
0.000
0.000
0.000
0.000
2.000
0.000
0.000
0.000
0.000
0.000
0.000
0.000
0.000
0.000
0.000
0.000
0.000
0.000
0.000
0.000
0.000
1.000
0.000
0.000
1.000
0.000
0.000
0.000
0.000
1.000
0.000
0.000
1.000
0.000
1.000
0.000
0.000
0.000
0.000
0.000
0.000
1.000
0.000
0.000
0.000
0.000
0.000
0.000
0.000
0.000
0.000
0.000
0.000
0.000
0.000
0.000
0.000
0.000
0.000
0.000
0.000
0.000
0.000
0.000
0.000
0.000
0.000
0.000
0.000
0.000
0.000
0.000
0.000
0.000
0.000
0.000
0.000
0.000
0.000
0.000
0.000
0.000
0.000
0.000
0.000
0.000
0.000
0.000
0.000
0.000
0.000
0.000
0.000
0.000
0.000
0.000
0.000
0.000
0.000
0.000
0.000
0.000
0.000
0.000
0.000
0.000
0.000
0.000
0.000
0.000
0.000
0.000
0.000
0.000
0.000
0.000
0.000
0.000
0.000
0.000
0.000
0.000
0.000
0.000
0.000
0.000
0.000
0.000
0.000
0.000
0.000
0.000
0.000
0.000
0.000
0.000
0.000
0.000
0.000
0.000
0.000
0.000
0.000
0.000
0.000
0.000
0.000
0.000
0.000
0.000
0.000
0.000
0.000
0.000
0.000
0.000
0.000
0.000
0.000
0.000
0.000
0.000
0.000
0.000
0.000
0.000
0.000
0.000
0.000
0.000
0.000
0.000
0.000
0.000
0.000
0.000
0.000
0.000
0.000
0.000
0.000
0.000
0.000
0.000
0.000
0.000
0.000
0.000
0.000
0.000
0.000
0.000
0.000
0.000
0.000
0.000
0.000
0.000
0.000
0.000
0.000
0.000
0.000
0.000
0.000
0.000
0.000
0.000
0.000
0.000
0.000
0.000
0.000
0.000
0.000
0.000
0.000
0.000
0.000
0.000
0.000
0.000
0.000
0.000
0.000
0.000
0.000
0.000
0.000
0.000
0.000
0.000
0.000
0.000
0.000
0.000
0.000
0.000
0.000
0.000
0.000
0.000
0.000
0.000
0.000
0.000
0.000
0.000
0.000
0.000
0.000
0.000
0.000
0.000
0.000
0.000
0.000
0.000
0.000
0.000
0.000
0.000
0.000
0.000
0.000
0.000
0.000
0.000
0.000
0.000
0.000
0.000
0.000
0.000
0.000
0.000
0.000
0.000
0.000
0.000
0.000
0.000
0.000
0.000
0.000
0.000
0.000
0.000
0.000
0.000
0.000
0.000
0.000
0.000
0.000
0.000
0.000
0.000
0.000
0.000
0.000
0.000
0.000
0.000
0.000
0.000
0.000
0.000
0.000
#ENDOFDATA   :