File: data/SEM-data_2024/artifact_surfaces/P1-231_artifact_lw_analysis_2_region/spectrum.emsa
#FORMAT      : EMSA/MAS Spectral Data File
#VERSION     : 1.0
#TITLE       : EDS Spectrum
#DATE        : 19-SEP-2024
#TIME        : 11:20
#OWNER       : Thermo Fisher Scientific Inc.
#NPOINTS     : 2048.
#NCOLUMNS    : 1.
#XUNITS      : eV
#YUNITS      : Counts
#DATATYPE    : Y
#XPERCHAN    : 9.933
#OFFSET      : -44.878
#XLABEL      : Energy
#YLABEL      : Counts
#SIGNALTYPE  : EDS
#BEAMKV      : 15.000
#AZIMANGLE-dg: 0.0
#ELEVANGLE-dg: 28.5
#LIVETIME    : 41.706
#REALTIME    : 51.192
#EDSDET      : SDUTW
##MNFWHM     : 126.3
##INSTRUMENT : MVE075582-10647-L
##SLOWTPEAK  : 0.000004000
##FASTTPEAK  : 0.000000100
##OPTICALWD  : 0.005500000
##WD         : 0.006934642
##SDDAREA    : 0.000025
##CCORR      : 260.454
##SCORR      : LIN
#SPECTRUM    : Spectral Data Starts Here
0.000
0.000
0.000
0.000
0.000
0.000
0.000
63.000
48.000
38.000
38.000
47.000
50.000
80.000
244.000
490.000
729.000
515.000
176.000
90.000
82.000
137.000
155.000
149.000
218.000
599.000
1926.000
4949.000
7706.000
5995.000
2312.000
493.000
107.000
90.000
87.000
102.000
152.000
188.000
152.000
128.000
78.000
86.000
91.000
85.000
80.000
88.000
88.000
99.000
95.000
109.000
154.000
214.000
406.000
762.000
941.000
786.000
464.000
224.000
128.000
114.000
117.000
111.000
118.000
175.000
177.000
210.000
197.000
167.000
121.000
139.000
132.000
145.000
173.000
217.000
468.000
983.000
1607.000
1654.000
1201.000
718.000
343.000
216.000
178.000
172.000
187.000
397.000
1200.000
3083.000
6381.000
9133.000
8781.000
5990.000
2874.000
1228.000
621.000
404.000
257.000
128.000
90.000
80.000
81.000
88.000
104.000
94.000
82.000
93.000
79.000
79.000
94.000
65.000
62.000
68.000
61.000
81.000
65.000
62.000
63.000
73.000
85.000
78.000
78.000
68.000
69.000
72.000
74.000
60.000
71.000
73.000
54.000
54.000
80.000
62.000
63.000
79.000
81.000
86.000
65.000
76.000
71.000
68.000
62.000
62.000
66.000
48.000
71.000
70.000
67.000
76.000
62.000
58.000
61.000
53.000
68.000
64.000
61.000
61.000
59.000
67.000
63.000
58.000
56.000
55.000
51.000
68.000
74.000
70.000
81.000
92.000
133.000
111.000
103.000
94.000
89.000
73.000
55.000
56.000
56.000
49.000
53.000
50.000
50.000
52.000
67.000
68.000
90.000
86.000
81.000
89.000
99.000
121.000
87.000
62.000
60.000
45.000
46.000
53.000
38.000
47.000
59.000
44.000
48.000
67.000
45.000
53.000
40.000
52.000
38.000
54.000
64.000
50.000
36.000
42.000
43.000
45.000
50.000
61.000
42.000
51.000
40.000
38.000
58.000
53.000
48.000
43.000
36.000
55.000
36.000
62.000
58.000
49.000
58.000
41.000
44.000
47.000
41.000
42.000
47.000
51.000
46.000
44.000
33.000
36.000
42.000
51.000
36.000
40.000
44.000
35.000
33.000
42.000
38.000
36.000
39.000
37.000
42.000
41.000
42.000
31.000
29.000
38.000
38.000
31.000
27.000
36.000
40.000
31.000
38.000
28.000
37.000
41.000
32.000
35.000
27.000
31.000
30.000
25.000
38.000
40.000
28.000
26.000
30.000
29.000
23.000
24.000
41.000
36.000
28.000
19.000
28.000
32.000
35.000
36.000
30.000
29.000
25.000
42.000
33.000
24.000
28.000
33.000
33.000
40.000
25.000
32.000
25.000
21.000
34.000
32.000
21.000
22.000
20.000
25.000
48.000
24.000
36.000
33.000
27.000
39.000
36.000
49.000
66.000
82.000
112.000
108.000
123.000
122.000
103.000
87.000
54.000
46.000
32.000
35.000
19.000
18.000
31.000
31.000
19.000
23.000
22.000
19.000
32.000
17.000
33.000
22.000
24.000
28.000
16.000
25.000
14.000
11.000
26.000
23.000
25.000
17.000
29.000
17.000
26.000
32.000
41.000
30.000
35.000
20.000
22.000
22.000
17.000
16.000
24.000
15.000
32.000
30.000
14.000
21.000
22.000
18.000
10.000
22.000
18.000
19.000
14.000
15.000
15.000
17.000
18.000
15.000
23.000
20.000
14.000
8.000
16.000
12.000
15.000
19.000
15.000
21.000
13.000
16.000
15.000
10.000
13.000
22.000
9.000
14.000
17.000
18.000
19.000
22.000
6.000
18.000
20.000
9.000
17.000
13.000
12.000
24.000
24.000
10.000
21.000
10.000
15.000
8.000
9.000
16.000
14.000
20.000
14.000
16.000
10.000
11.000
9.000
11.000
19.000
14.000
20.000
18.000
15.000
18.000
23.000
19.000
13.000
21.000
17.000
17.000
13.000
9.000
12.000
8.000
10.000
9.000
16.000
11.000
17.000
18.000
17.000
8.000
6.000
4.000
10.000
7.000
14.000
17.000
10.000
10.000
10.000
11.000
13.000
10.000
8.000
15.000
13.000
6.000
10.000
12.000
9.000
8.000
12.000
9.000
9.000
13.000
11.000
11.000
11.000
4.000
9.000
12.000
10.000
5.000
11.000
14.000
14.000
9.000
12.000
7.000
7.000
11.000
9.000
12.000
13.000
10.000
9.000
10.000
5.000
16.000
13.000
6.000
14.000
7.000
11.000
7.000
6.000
14.000
7.000
6.000
6.000
7.000
5.000
4.000
8.000
10.000
8.000
9.000
12.000
12.000
7.000
14.000
2.000
6.000
8.000
8.000
5.000
2.000
6.000
9.000
6.000
8.000
6.000
5.000
6.000
7.000
3.000
9.000
4.000
4.000
5.000
4.000
7.000
6.000
7.000
4.000
9.000
3.000
12.000
6.000
4.000
6.000
2.000
7.000
1.000
8.000
3.000
10.000
7.000
8.000
7.000
4.000
6.000
3.000
4.000
4.000
7.000
5.000
4.000
4.000
5.000
5.000
6.000
7.000
11.000
3.000
8.000
6.000
4.000
1.000
5.000
4.000
5.000
5.000
2.000
7.000
5.000
3.000
6.000
3.000
7.000
4.000
1.000
5.000
5.000
4.000
4.000
3.000
4.000
6.000
1.000
3.000
2.000
5.000
6.000
6.000
7.000
4.000
1.000
4.000
2.000
3.000
2.000
6.000
5.000
5.000
2.000
4.000
2.000
3.000
0.000
3.000
4.000
2.000
2.000
2.000
1.000
0.000
2.000
1.000
0.000
1.000
1.000
0.000
3.000
2.000
2.000
1.000
4.000
1.000
2.000
5.000
1.000
2.000
0.000
3.000
3.000
2.000
1.000
2.000
3.000
0.000
3.000
2.000
5.000
0.000
1.000
1.000
0.000
2.000
2.000
5.000
0.000
1.000
1.000
1.000
2.000
1.000
2.000
1.000
0.000
4.000
1.000
4.000
0.000
0.000
2.000
2.000
0.000
2.000
1.000
1.000
1.000
0.000
1.000
0.000
1.000
0.000
0.000
0.000
3.000
1.000
2.000
0.000
2.000
3.000
2.000
0.000
0.000
0.000
0.000
1.000
2.000
1.000
1.000
1.000
1.000
0.000
0.000
3.000
0.000
0.000
2.000
0.000
2.000
1.000
1.000
2.000
0.000
0.000
0.000
0.000
4.000
0.000
0.000
1.000
0.000
1.000
0.000
1.000
0.000
1.000
0.000
0.000
0.000
0.000
1.000
0.000
0.000
0.000
0.000
0.000
0.000
2.000
1.000
0.000
0.000
0.000
0.000
0.000
0.000
0.000
0.000
0.000
0.000
0.000
0.000
0.000
0.000
0.000
0.000
0.000
0.000
0.000
0.000
0.000
0.000
0.000
0.000
0.000
0.000
0.000
0.000
0.000
0.000
0.000
0.000
0.000
0.000
0.000
0.000
0.000
0.000
0.000
0.000
0.000
0.000
0.000
0.000
0.000
0.000
0.000
0.000
0.000
0.000
0.000
0.000
0.000
0.000
1.000
0.000
0.000
0.000
0.000
0.000
0.000
0.000
0.000
0.000
0.000
0.000
0.000
0.000
0.000
0.000
0.000
0.000
0.000
0.000
0.000
0.000
0.000
0.000
0.000
0.000
0.000
0.000
0.000
0.000
0.000
0.000
0.000
0.000
0.000
0.000
0.000
0.000
0.000
0.000
0.000
0.000
0.000
0.000
0.000
0.000
0.000
0.000
0.000
0.000
0.000
0.000
0.000
0.000
0.000
0.000
0.000
0.000
0.000
0.000
0.000
0.000
0.000
0.000
0.000
0.000
0.000
0.000
0.000
0.000
0.000
0.000
0.000
0.000
0.000
0.000
0.000
0.000
0.000
0.000
0.000
0.000
0.000
0.000
0.000
0.000
0.000
0.000
0.000
0.000
0.000
0.000
0.000
0.000
0.000
0.000
0.000
0.000
0.000
0.000
0.000
0.000
0.000
0.000
0.000
0.000
0.000
0.000
0.000
0.000
0.000
0.000
0.000
0.000
0.000
0.000
0.000
0.000
0.000
0.000
0.000
0.000
0.000
0.000
0.000
0.000
0.000
0.000
0.000
0.000
0.000
0.000
0.000
0.000
0.000
0.000
0.000
0.000
0.000
0.000
0.000
0.000
0.000
0.000
0.000
0.000
0.000
0.000
0.000
0.000
0.000
0.000
0.000
0.000
0.000
0.000
0.000
0.000
0.000
0.000
0.000
0.000
0.000
0.000
0.000
0.000
0.000
0.000
0.000
0.000
0.000
0.000
0.000
0.000
0.000
0.000
0.000
0.000
0.000
0.000
0.000
0.000
0.000
0.000
0.000
0.000
0.000
0.000
0.000
0.000
0.000
0.000
0.000
0.000
0.000
0.000
0.000
0.000
0.000
0.000
0.000
0.000
0.000
0.000
0.000
0.000
0.000
0.000
0.000
0.000
0.000
0.000
0.000
0.000
0.000
0.000
0.000
0.000
0.000
0.000
0.000
0.000
0.000
0.000
#ENDOFDATA   :