File: data/SEM-data_2024/artifact_surfaces/P1-83_artifact_001_analysis_lw_region/spectrum.emsa
#FORMAT      : EMSA/MAS Spectral Data File
#VERSION     : 1.0
#TITLE       : EDS Spectrum
#DATE        : 19-SEP-2024
#TIME        : 11:20
#OWNER       : Thermo Fisher Scientific Inc.
#NPOINTS     : 2048.
#NCOLUMNS    : 1.
#XUNITS      : eV
#YUNITS      : Counts
#DATATYPE    : Y
#XPERCHAN    : 9.933
#OFFSET      : -44.878
#XLABEL      : Energy
#YLABEL      : Counts
#SIGNALTYPE  : EDS
#BEAMKV      : 15.000
#AZIMANGLE-dg: 0.0
#ELEVANGLE-dg: 28.5
#LIVETIME    : 32.455
#REALTIME    : 40.761
#EDSDET      : SDUTW
##MNFWHM     : 126.3
##INSTRUMENT : MVE075582-10647-L
##SLOWTPEAK  : 0.000004000
##FASTTPEAK  : 0.000000100
##OPTICALWD  : 0.005500000
##WD         : 0.009810498
##SDDAREA    : 0.000025
##CCORR      : 260.454
##SCORR      : LIN
#SPECTRUM    : Spectral Data Starts Here
0.000
0.000
0.000
0.000
0.000
0.000
0.000
91.000
61.000
44.000
41.000
50.000
50.000
59.000
110.000
228.000
324.000
251.000
152.000
107.000
140.000
176.000
208.000
222.000
361.000
870.000
2640.000
6805.000
10714.000
8362.000
3130.000
607.000
153.000
95.000
103.000
114.000
171.000
189.000
177.000
142.000
109.000
95.000
127.000
95.000
116.000
110.000
97.000
127.000
127.000
141.000
164.000
258.000
454.000
912.000
1203.000
968.000
597.000
282.000
149.000
127.000
109.000
134.000
147.000
168.000
189.000
208.000
203.000
191.000
130.000
140.000
114.000
164.000
158.000
272.000
496.000
1136.000
1707.000
1778.000
1307.000
681.000
342.000
243.000
164.000
175.000
191.000
352.000
1028.000
2764.000
5620.000
7879.000
7673.000
5060.000
2467.000
1024.000
511.000
351.000
201.000
118.000
99.000
70.000
55.000
71.000
78.000
67.000
70.000
67.000
63.000
72.000
65.000
66.000
60.000
52.000
72.000
61.000
68.000
60.000
62.000
82.000
83.000
66.000
48.000
48.000
63.000
58.000
63.000
42.000
49.000
39.000
57.000
57.000
52.000
79.000
67.000
66.000
66.000
66.000
68.000
53.000
46.000
41.000
59.000
54.000
51.000
48.000
43.000
49.000
55.000
56.000
46.000
41.000
54.000
39.000
59.000
54.000
45.000
42.000
58.000
43.000
45.000
35.000
37.000
43.000
53.000
51.000
49.000
55.000
58.000
70.000
73.000
75.000
79.000
73.000
73.000
28.000
45.000
40.000
34.000
46.000
39.000
44.000
51.000
43.000
52.000
44.000
47.000
63.000
44.000
63.000
50.000
46.000
53.000
37.000
47.000
36.000
31.000
33.000
39.000
35.000
41.000
33.000
41.000
41.000
40.000
47.000
40.000
44.000
44.000
35.000
37.000
32.000
34.000
42.000
25.000
32.000
35.000
42.000
25.000
32.000
30.000
31.000
31.000
37.000
26.000
26.000
29.000
36.000
36.000
32.000
41.000
35.000
32.000
34.000
29.000
41.000
26.000
29.000
21.000
27.000
22.000
30.000
27.000
30.000
26.000
37.000
34.000
33.000
24.000
26.000
29.000
19.000
22.000
22.000
29.000
27.000
25.000
27.000
24.000
27.000
16.000
33.000
24.000
23.000
27.000
23.000
18.000
23.000
23.000
25.000
23.000
17.000
25.000
25.000
23.000
24.000
23.000
15.000
25.000
26.000
25.000
27.000
14.000
23.000
27.000
23.000
22.000
19.000
23.000
23.000
19.000
31.000
21.000
23.000
20.000
22.000
18.000
22.000
18.000
21.000
23.000
11.000
25.000
19.000
20.000
28.000
10.000
20.000
14.000
22.000
20.000
20.000
17.000
19.000
22.000
16.000
21.000
23.000
20.000
16.000
17.000
28.000
36.000
50.000
53.000
70.000
78.000
74.000
55.000
54.000
38.000
27.000
21.000
17.000
10.000
11.000
19.000
17.000
15.000
18.000
13.000
19.000
12.000
17.000
16.000
18.000
14.000
17.000
18.000
14.000
18.000
8.000
16.000
9.000
26.000
12.000
17.000
22.000
34.000
14.000
20.000
16.000
19.000
20.000
18.000
18.000
15.000
13.000
8.000
17.000
14.000
14.000
13.000
13.000
12.000
14.000
13.000
17.000
12.000
11.000
12.000
9.000
13.000
14.000
14.000
17.000
16.000
9.000
15.000
12.000
14.000
14.000
8.000
8.000
9.000
14.000
11.000
12.000
9.000
13.000
16.000
9.000
14.000
14.000
6.000
8.000
9.000
12.000
12.000
10.000
11.000
4.000
9.000
12.000
8.000
12.000
9.000
9.000
9.000
14.000
5.000
12.000
6.000
12.000
10.000
8.000
12.000
4.000
16.000
13.000
5.000
7.000
11.000
7.000
10.000
9.000
6.000
8.000
11.000
9.000
9.000
9.000
4.000
5.000
13.000
7.000
8.000
6.000
7.000
9.000
11.000
10.000
7.000
8.000
3.000
5.000
11.000
5.000
14.000
6.000
5.000
15.000
9.000
14.000
13.000
6.000
10.000
4.000
9.000
12.000
6.000
9.000
10.000
7.000
6.000
5.000
10.000
4.000
8.000
6.000
3.000
3.000
8.000
9.000
2.000
4.000
7.000
5.000
8.000
3.000
9.000
1.000
6.000
4.000
2.000
11.000
2.000
12.000
6.000
5.000
4.000
12.000
4.000
7.000
7.000
3.000
7.000
7.000
12.000
2.000
2.000
5.000
3.000
2.000
4.000
5.000
4.000
4.000
6.000
6.000
4.000
8.000
3.000
4.000
4.000
1.000
3.000
3.000
3.000
6.000
6.000
2.000
9.000
8.000
6.000
4.000
5.000
4.000
6.000
6.000
3.000
3.000
5.000
7.000
6.000
1.000
2.000
3.000
10.000
2.000
3.000
4.000
1.000
6.000
3.000
5.000
3.000
5.000
1.000
5.000
5.000
3.000
5.000
3.000
5.000
3.000
4.000
4.000
6.000
2.000
2.000
3.000
4.000
3.000
1.000
3.000
2.000
1.000
3.000
2.000
1.000
6.000
2.000
5.000
2.000
1.000
2.000
3.000
1.000
5.000
4.000
6.000
1.000
5.000
2.000
7.000
2.000
5.000
2.000
3.000
3.000
2.000
2.000
2.000
2.000
4.000
5.000
3.000
0.000
2.000
5.000
1.000
0.000
1.000
3.000
3.000
2.000
1.000
4.000
2.000
3.000
4.000
3.000
4.000
2.000
1.000
1.000
1.000
3.000
1.000
0.000
1.000
5.000
2.000
3.000
0.000
2.000
1.000
2.000
0.000
3.000
0.000
2.000
1.000
1.000
1.000
2.000
1.000
1.000
2.000
0.000
0.000
1.000
0.000
1.000
0.000
1.000
0.000
1.000
1.000
2.000
0.000
2.000
2.000
0.000
1.000
1.000
0.000
0.000
3.000
1.000
1.000
3.000
0.000
2.000
1.000
2.000
1.000
5.000
2.000
1.000
1.000
2.000
3.000
0.000
2.000
0.000
1.000
2.000
2.000
0.000
0.000
1.000
1.000
0.000
1.000
0.000
0.000
0.000
1.000
1.000
0.000
0.000
1.000
1.000
1.000
3.000
2.000
1.000
0.000
1.000
0.000
0.000
0.000
1.000
1.000
0.000
0.000
0.000
1.000
0.000
0.000
1.000
0.000
0.000
0.000
0.000
1.000
1.000
0.000
0.000
1.000
0.000
1.000
0.000
0.000
0.000
0.000
0.000
2.000
0.000
0.000
2.000
0.000
0.000
0.000
0.000
0.000
0.000
1.000
0.000
0.000
0.000
0.000
0.000
0.000
0.000
0.000
1.000
0.000
0.000
0.000
0.000
0.000
0.000
0.000
0.000
0.000
0.000
0.000
0.000
0.000
0.000
0.000
0.000
0.000
0.000
0.000
0.000
0.000
0.000
0.000
0.000
0.000
0.000
0.000
0.000
0.000
0.000
0.000
0.000
0.000
0.000
0.000
0.000
0.000
0.000
0.000
0.000
0.000
0.000
0.000
0.000
0.000
0.000
0.000
0.000
0.000
0.000
0.000
0.000
0.000
0.000
0.000
0.000
0.000
0.000
0.000
0.000
0.000
0.000
0.000
0.000
0.000
0.000
0.000
0.000
0.000
0.000
0.000
0.000
0.000
0.000
0.000
0.000
0.000
0.000
0.000
0.000
0.000
0.000
0.000
0.000
0.000
0.000
0.000
0.000
0.000
0.000
0.000
0.000
0.000
0.000
0.000
0.000
0.000
0.000
0.000
0.000
0.000
0.000
0.000
0.000
0.000
0.000
0.000
0.000
0.000
0.000
0.000
0.000
0.000
0.000
0.000
0.000
0.000
0.000
0.000
0.000
0.000
0.000
0.000
0.000
0.000
0.000
0.000
0.000
0.000
0.000
0.000
0.000
0.000
0.000
0.000
0.000
0.000
0.000
0.000
0.000
0.000
0.000
0.000
0.000
0.000
0.000
0.000
0.000
0.000
0.000
0.000
0.000
0.000
0.000
0.000
0.000
0.000
0.000
0.000
0.000
0.000
0.000
0.000
0.000
0.000
0.000
0.000
0.000
0.000
0.000
0.000
0.000
0.000
0.000
0.000
0.000
0.000
0.000
0.000
0.000
0.000
0.000
0.000
0.000
0.000
0.000
0.000
0.000
0.000
0.000
0.000
0.000
0.000
0.000
0.000
0.000
0.000
0.000
0.000
0.000
0.000
0.000
0.000
0.000
0.000
0.000
0.000
0.000
0.000
0.000
0.000
0.000
0.000
0.000
0.000
0.000
0.000
0.000
0.000
0.000
0.000
0.000
0.000
0.000
0.000
0.000
0.000
0.000
0.000
0.000
0.000
0.000
0.000
0.000
0.000
0.000
0.000
0.000
0.000
0.000
0.000
0.000
0.000
0.000
0.000
0.000
0.000
0.000
0.000
0.000
0.000
0.000
0.000
0.000
0.000
0.000
0.000
0.000
0.000
0.000
0.000
0.000
0.000
0.000
0.000
0.000
0.000
0.000
#ENDOFDATA   :