File: data/SEM-data_2024/artifact_surfaces/P2-791_artifact_002_analysis_lw_region/spectrum.emsa
#FORMAT      : EMSA/MAS Spectral Data File
#VERSION     : 1.0
#TITLE       : EDS Spectrum
#DATE        : 19-SEP-2024
#TIME        : 11:20
#OWNER       : Thermo Fisher Scientific Inc.
#NPOINTS     : 2048.
#NCOLUMNS    : 1.
#XUNITS      : eV
#YUNITS      : Counts
#DATATYPE    : Y
#XPERCHAN    : 9.933
#OFFSET      : -44.878
#XLABEL      : Energy
#YLABEL      : Counts
#SIGNALTYPE  : EDS
#BEAMKV      : 15.000
#AZIMANGLE-dg: 0.0
#ELEVANGLE-dg: 28.5
#LIVETIME    : 338.511
#REALTIME    : 397.991
#EDSDET      : SDUTW
##MNFWHM     : 126.3
##INSTRUMENT : MVE075582-10647-L
##SLOWTPEAK  : 0.000004000
##FASTTPEAK  : 0.000000100
##OPTICALWD  : 0.005500000
##WD         : 0.0148724
##SDDAREA    : 0.000025
##CCORR      : 260.454
##SCORR      : LIN
#SPECTRUM    : Spectral Data Starts Here
0.000
0.000
0.000
0.000
0.000
0.000
0.000
157.000
79.000
46.000
44.000
63.000
55.000
67.000
136.000
284.000
369.000
301.000
165.000
150.000
204.000
305.000
340.000
319.000
357.000
804.000
2474.000
6467.000
9980.000
7886.000
2950.000
630.000
162.000
105.000
118.000
121.000
185.000
229.000
222.000
161.000
90.000
102.000
96.000
110.000
87.000
105.000
96.000
101.000
110.000
119.000
153.000
226.000
428.000
941.000
1255.000
1090.000
540.000
258.000
150.000
99.000
116.000
111.000
121.000
162.000
213.000
201.000
193.000
179.000
130.000
125.000
126.000
115.000
162.000
248.000
555.000
1129.000
1769.000
1956.000
1431.000
748.000
394.000
224.000
164.000
169.000
239.000
352.000
1035.000
2733.000
5455.000
7772.000
7722.000
5194.000
2526.000
1060.000
517.000
322.000
202.000
132.000
76.000
80.000
67.000
91.000
82.000
87.000
67.000
60.000
73.000
54.000
54.000
64.000
75.000
61.000
61.000
68.000
66.000
62.000
48.000
71.000
45.000
55.000
50.000
72.000
67.000
60.000
63.000
66.000
64.000
54.000
59.000
64.000
63.000
55.000
65.000
79.000
68.000
66.000
71.000
58.000
67.000
60.000
54.000
54.000
50.000
36.000
68.000
49.000
51.000
47.000
60.000
50.000
45.000
45.000
57.000
61.000
48.000
43.000
37.000
46.000
51.000
36.000
51.000
56.000
50.000
54.000
54.000
54.000
52.000
77.000
74.000
78.000
76.000
69.000
56.000
51.000
55.000
49.000
33.000
56.000
45.000
49.000
40.000
29.000
52.000
54.000
45.000
52.000
49.000
71.000
63.000
70.000
52.000
38.000
55.000
38.000
33.000
41.000
33.000
31.000
30.000
37.000
31.000
35.000
25.000
33.000
43.000
38.000
41.000
52.000
30.000
37.000
35.000
36.000
39.000
38.000
31.000
32.000
35.000
27.000
47.000
30.000
35.000
34.000
25.000
27.000
34.000
33.000
40.000
42.000
57.000
50.000
56.000
40.000
38.000
33.000
37.000
34.000
34.000
28.000
28.000
23.000
23.000
21.000
34.000
39.000
27.000
42.000
26.000
38.000
28.000
27.000
31.000
36.000
25.000
44.000
27.000
24.000
26.000
33.000
20.000
24.000
23.000
28.000
34.000
22.000
22.000
28.000
25.000
28.000
27.000
20.000
26.000
30.000
20.000
23.000
31.000
27.000
18.000
23.000
25.000
22.000
17.000
23.000
20.000
24.000
25.000
29.000
15.000
22.000
21.000
15.000
23.000
24.000
27.000
16.000
24.000
12.000
19.000
22.000
27.000
24.000
19.000
18.000
23.000
17.000
17.000
29.000
24.000
16.000
21.000
16.000
25.000
17.000
13.000
13.000
23.000
21.000
15.000
18.000
22.000
30.000
47.000
54.000
57.000
85.000
78.000
77.000
79.000
54.000
38.000
25.000
20.000
9.000
14.000
17.000
18.000
16.000
15.000
20.000
21.000
24.000
22.000
12.000
22.000
25.000
12.000
10.000
18.000
18.000
14.000
15.000
12.000
26.000
12.000
18.000
16.000
20.000
22.000
25.000
17.000
17.000
22.000
21.000
16.000
16.000
17.000
14.000
20.000
15.000
15.000
13.000
14.000
17.000
9.000
14.000
15.000
10.000
12.000
22.000
16.000
10.000
16.000
13.000
14.000
13.000
11.000
16.000
11.000
11.000
12.000
7.000
8.000
9.000
11.000
11.000
17.000
11.000
12.000
11.000
11.000
12.000
6.000
7.000
8.000
5.000
9.000
19.000
10.000
11.000
7.000
13.000
11.000
12.000
11.000
20.000
6.000
20.000
7.000
8.000
11.000
10.000
11.000
16.000
8.000
13.000
10.000
9.000
10.000
11.000
14.000
8.000
11.000
7.000
11.000
6.000
11.000
8.000
10.000
10.000
11.000
9.000
6.000
5.000
10.000
9.000
4.000
8.000
10.000
1.000
10.000
9.000
8.000
4.000
8.000
7.000
7.000
7.000
10.000
8.000
12.000
5.000
2.000
6.000
9.000
8.000
4.000
4.000
8.000
8.000
6.000
6.000
11.000
9.000
9.000
12.000
8.000
10.000
9.000
14.000
9.000
7.000
8.000
7.000
7.000
8.000
5.000
13.000
6.000
5.000
12.000
9.000
5.000
3.000
7.000
2.000
8.000
6.000
7.000
6.000
4.000
4.000
5.000
8.000
5.000
5.000
2.000
12.000
3.000
1.000
4.000
9.000
7.000
8.000
8.000
7.000
4.000
3.000
7.000
3.000
9.000
5.000
4.000
4.000
0.000
5.000
7.000
3.000
5.000
5.000
4.000
5.000
5.000
3.000
6.000
6.000
5.000
4.000
2.000
1.000
9.000
7.000
3.000
2.000
6.000
7.000
2.000
6.000
4.000
4.000
5.000
5.000
3.000
2.000
7.000
4.000
5.000
4.000
5.000
7.000
4.000
4.000
5.000
0.000
5.000
1.000
5.000
1.000
3.000
4.000
3.000
7.000
3.000
7.000
5.000
4.000
2.000
3.000
6.000
6.000
0.000
6.000
3.000
1.000
1.000
5.000
2.000
3.000
1.000
3.000
1.000
1.000
6.000
2.000
4.000
3.000
1.000
2.000
2.000
2.000
3.000
2.000
2.000
3.000
2.000
3.000
3.000
3.000
2.000
2.000
3.000
0.000
3.000
2.000
5.000
3.000
1.000
3.000
4.000
5.000
1.000
4.000
2.000
4.000
2.000
3.000
2.000
2.000
1.000
4.000
0.000
2.000
6.000
2.000
2.000
2.000
4.000
1.000
1.000
1.000
1.000
2.000
0.000
1.000
0.000
0.000
2.000
3.000
2.000
0.000
2.000
1.000
4.000
3.000
0.000
0.000
2.000
3.000
1.000
1.000
0.000
5.000
2.000
1.000
1.000
0.000
2.000
1.000
1.000
0.000
1.000
1.000
1.000
0.000
1.000
0.000
0.000
0.000
1.000
0.000
2.000
4.000
1.000
1.000
2.000
1.000
0.000
1.000
0.000
1.000
1.000
0.000
0.000
0.000
1.000
2.000
0.000
1.000
0.000
0.000
0.000
0.000
0.000
0.000
2.000
1.000
2.000
1.000
0.000
1.000
0.000
0.000
0.000
0.000
2.000
0.000
2.000
1.000
0.000
0.000
1.000
1.000
0.000
0.000
1.000
0.000
0.000
0.000
1.000
0.000
1.000
1.000
0.000
0.000
0.000
0.000
1.000
0.000
0.000
0.000
1.000
1.000
0.000
0.000
0.000
0.000
0.000
0.000
0.000
0.000
0.000
0.000
0.000
0.000
0.000
0.000
0.000
0.000
0.000
0.000
0.000
0.000
0.000
0.000
0.000
0.000
0.000
0.000
0.000
0.000
0.000
0.000
0.000
0.000
0.000
0.000
0.000
0.000
0.000
0.000
0.000
0.000
0.000
0.000
0.000
0.000
0.000
0.000
0.000
0.000
0.000
0.000
0.000
0.000
0.000
0.000
0.000
0.000
0.000
0.000
0.000
0.000
0.000
0.000
0.000
0.000
0.000
0.000
0.000
0.000
0.000
0.000
0.000
0.000
0.000
0.000
0.000
0.000
0.000
0.000
0.000
0.000
0.000
0.000
0.000
0.000
0.000
0.000
0.000
0.000
0.000
0.000
0.000
0.000
0.000
0.000
0.000
0.000
0.000
0.000
0.000
0.000
0.000
0.000
0.000
0.000
0.000
0.000
0.000
0.000
0.000
0.000
0.000
0.000
0.000
0.000
0.000
0.000
0.000
0.000
0.000
0.000
0.000
0.000
0.000
0.000
0.000
0.000
0.000
0.000
0.000
0.000
0.000
0.000
0.000
0.000
0.000
0.000
0.000
0.000
0.000
0.000
0.000
0.000
0.000
0.000
0.000
0.000
0.000
0.000
0.000
0.000
0.000
0.000
0.000
0.000
0.000
0.000
0.000
0.000
0.000
0.000
0.000
0.000
0.000
0.000
0.000
0.000
0.000
0.000
0.000
0.000
0.000
0.000
0.000
0.000
0.000
0.000
0.000
0.000
0.000
0.000
0.000
0.000
0.000
0.000
0.000
0.000
0.000
0.000
0.000
0.000
0.000
0.000
0.000
0.000
0.000
0.000
0.000
0.000
0.000
0.000
0.000
0.000
0.000
0.000
0.000
0.000
0.000
0.000
0.000
0.000
0.000
0.000
0.000
0.000
0.000
0.000
0.000
0.000
0.000
0.000
0.000
0.000
0.000
0.000
0.000
0.000
0.000
0.000
0.000
0.000
0.000
0.000
0.000
0.000
0.000
0.000
0.000
0.000
0.000
0.000
0.000
0.000
0.000
0.000
0.000
0.000
0.000
0.000
0.000
0.000
0.000
0.000
0.000
0.000
0.000
0.000
0.000
0.000
0.000
0.000
0.000
0.000
0.000
0.000
0.000
0.000
0.000
0.000
0.000
0.000
0.000
0.000
0.000
0.000
0.000
0.000
0.000
0.000
0.000
0.000
0.000
0.000
0.000
0.000
0.000
#ENDOFDATA   :