File: data/SEM-data_2024/artifact_surfaces/P1-231_artifact_lw_analysis_1_region/spectrum.emsa
#FORMAT      : EMSA/MAS Spectral Data File
#VERSION     : 1.0
#TITLE       : EDS Spectrum
#DATE        : 19-SEP-2024
#TIME        : 11:20
#OWNER       : Thermo Fisher Scientific Inc.
#NPOINTS     : 2048.
#NCOLUMNS    : 1.
#XUNITS      : eV
#YUNITS      : Counts
#DATATYPE    : Y
#XPERCHAN    : 9.933
#OFFSET      : -44.878
#XLABEL      : Energy
#YLABEL      : Counts
#SIGNALTYPE  : EDS
#BEAMKV      : 15.000
#AZIMANGLE-dg: 0.0
#ELEVANGLE-dg: 28.5
#LIVETIME    : 42.543
#REALTIME    : 52.160
#EDSDET      : SDUTW
##MNFWHM     : 126.3
##INSTRUMENT : MVE075582-10647-L
##SLOWTPEAK  : 0.000004000
##FASTTPEAK  : 0.000000100
##OPTICALWD  : 0.005500000
##WD         : 0.006934642
##SDDAREA    : 0.000025
##CCORR      : 260.454
##SCORR      : LIN
#SPECTRUM    : Spectral Data Starts Here
0.000
0.000
0.000
0.000
0.000
0.000
0.000
67.000
55.000
47.000
32.000
44.000
47.000
90.000
254.000
525.000
762.000
579.000
226.000
96.000
92.000
132.000
139.000
160.000
238.000
623.000
1845.000
4854.000
7312.000
5839.000
2300.000
445.000
115.000
82.000
78.000
102.000
153.000
182.000
153.000
106.000
77.000
71.000
90.000
85.000
93.000
92.000
93.000
98.000
103.000
117.000
150.000
231.000
484.000
806.000
975.000
795.000
441.000
218.000
148.000
97.000
108.000
121.000
118.000
163.000
180.000
208.000
194.000
156.000
143.000
143.000
133.000
134.000
167.000
255.000
498.000
1035.000
1556.000
1627.000
1239.000
703.000
363.000
227.000
167.000
178.000
200.000
409.000
1169.000
3081.000
6348.000
8845.000
8740.000
5703.000
2983.000
1273.000
642.000
401.000
238.000
148.000
89.000
83.000
72.000
88.000
96.000
108.000
101.000
90.000
77.000
79.000
68.000
70.000
79.000
77.000
69.000
71.000
73.000
89.000
76.000
94.000
87.000
89.000
88.000
74.000
59.000
79.000
60.000
77.000
72.000
62.000
63.000
79.000
86.000
68.000
87.000
69.000
84.000
88.000
92.000
67.000
71.000
74.000
47.000
46.000
66.000
75.000
78.000
65.000
58.000
64.000
53.000
67.000
59.000
69.000
71.000
64.000
58.000
62.000
70.000
58.000
55.000
58.000
72.000
56.000
77.000
60.000
61.000
78.000
78.000
125.000
118.000
109.000
116.000
90.000
67.000
64.000
73.000
70.000
78.000
66.000
53.000
60.000
63.000
55.000
54.000
90.000
85.000
76.000
91.000
98.000
108.000
109.000
98.000
57.000
70.000
51.000
53.000
44.000
43.000
59.000
53.000
57.000
53.000
55.000
56.000
49.000
57.000
40.000
52.000
55.000
39.000
51.000
48.000
44.000
49.000
53.000
48.000
54.000
37.000
54.000
41.000
36.000
37.000
41.000
53.000
58.000
44.000
46.000
57.000
68.000
59.000
61.000
58.000
51.000
56.000
39.000
45.000
44.000
32.000
39.000
54.000
53.000
42.000
46.000
44.000
36.000
37.000
37.000
44.000
45.000
36.000
49.000
39.000
48.000
35.000
47.000
48.000
39.000
43.000
28.000
36.000
35.000
38.000
34.000
39.000
38.000
40.000
32.000
31.000
34.000
34.000
30.000
36.000
39.000
33.000
33.000
37.000
45.000
36.000
32.000
32.000
30.000
40.000
36.000
39.000
27.000
28.000
40.000
33.000
37.000
28.000
44.000
33.000
40.000
25.000
33.000
36.000
26.000
33.000
35.000
32.000
45.000
37.000
36.000
30.000
25.000
30.000
39.000
31.000
38.000
31.000
33.000
22.000
37.000
29.000
30.000
27.000
30.000
36.000
42.000
45.000
54.000
61.000
92.000
110.000
132.000
135.000
151.000
125.000
94.000
61.000
38.000
38.000
29.000
16.000
20.000
19.000
24.000
23.000
29.000
10.000
19.000
31.000
32.000
27.000
25.000
14.000
34.000
28.000
19.000
26.000
19.000
22.000
22.000
16.000
26.000
34.000
32.000
29.000
35.000
42.000
39.000
41.000
18.000
27.000
19.000
24.000
21.000
27.000
19.000
15.000
16.000
14.000
13.000
17.000
21.000
29.000
14.000
24.000
13.000
24.000
20.000
16.000
15.000
17.000
17.000
15.000
14.000
15.000
15.000
34.000
16.000
23.000
14.000
16.000
15.000
24.000
13.000
17.000
10.000
9.000
18.000
16.000
14.000
21.000
14.000
14.000
19.000
17.000
17.000
12.000
21.000
18.000
23.000
12.000
14.000
17.000
21.000
16.000
19.000
19.000
17.000
19.000
14.000
13.000
19.000
15.000
18.000
8.000
15.000
14.000
13.000
19.000
20.000
16.000
14.000
25.000
32.000
30.000
24.000
18.000
19.000
18.000
14.000
11.000
14.000
16.000
19.000
14.000
7.000
10.000
14.000
16.000
18.000
19.000
14.000
12.000
12.000
10.000
15.000
9.000
11.000
15.000
11.000
14.000
11.000
13.000
13.000
10.000
11.000
20.000
11.000
12.000
16.000
13.000
13.000
21.000
15.000
13.000
7.000
15.000
9.000
13.000
20.000
10.000
15.000
12.000
16.000
10.000
15.000
7.000
12.000
9.000
9.000
9.000
8.000
7.000
7.000
8.000
12.000
11.000
9.000
9.000
12.000
5.000
7.000
13.000
12.000
7.000
6.000
5.000
8.000
5.000
11.000
7.000
6.000
6.000
15.000
10.000
5.000
8.000
7.000
8.000
12.000
11.000
7.000
8.000
13.000
10.000
6.000
6.000
3.000
3.000
6.000
4.000
6.000
5.000
6.000
8.000
5.000
8.000
5.000
5.000
9.000
7.000
8.000
7.000
7.000
7.000
8.000
7.000
9.000
4.000
4.000
7.000
5.000
3.000
11.000
9.000
7.000
6.000
4.000
6.000
4.000
9.000
8.000
4.000
5.000
10.000
9.000
4.000
9.000
2.000
2.000
5.000
6.000
8.000
7.000
4.000
3.000
7.000
3.000
5.000
5.000
5.000
6.000
3.000
4.000
3.000
6.000
3.000
6.000
4.000
5.000
4.000
4.000
3.000
4.000
3.000
5.000
8.000
9.000
4.000
6.000
4.000
3.000
2.000
3.000
8.000
8.000
4.000
3.000
5.000
3.000
3.000
6.000
5.000
4.000
2.000
3.000
2.000
4.000
4.000
1.000
2.000
4.000
1.000
3.000
5.000
2.000
4.000
1.000
1.000
4.000
4.000
5.000
3.000
5.000
3.000
2.000
3.000
5.000
2.000
3.000
3.000
2.000
2.000
4.000
6.000
2.000
2.000
1.000
3.000
0.000
6.000
0.000
2.000
6.000
3.000
1.000
1.000
2.000
1.000
5.000
3.000
0.000
0.000
1.000
1.000
4.000
4.000
0.000
2.000
2.000
4.000
2.000
2.000
2.000
1.000
5.000
1.000
2.000
0.000
0.000
2.000
5.000
2.000
3.000
1.000
2.000
1.000
0.000
0.000
2.000
0.000
3.000
3.000
0.000
0.000
1.000
0.000
1.000
1.000
2.000
1.000
0.000
0.000
0.000
2.000
1.000
0.000
1.000
2.000
1.000
1.000
1.000
1.000
0.000
2.000
3.000
2.000
0.000
2.000
1.000
0.000
0.000
0.000
0.000
1.000
0.000
1.000
0.000
0.000
0.000
0.000
2.000
1.000
0.000
0.000
0.000
0.000
0.000
0.000
0.000
2.000
0.000
0.000
0.000
0.000
0.000
0.000
0.000
0.000
0.000
0.000
0.000
0.000
0.000
0.000
0.000
0.000
1.000
0.000
0.000
0.000
0.000
0.000
0.000
0.000
0.000
0.000
0.000
0.000
0.000
0.000
0.000
0.000
0.000
0.000
0.000
0.000
0.000
0.000
0.000
0.000
0.000
0.000
0.000
0.000
0.000
0.000
0.000
0.000
0.000
0.000
0.000
0.000
0.000
0.000
0.000
0.000
0.000
0.000
0.000
0.000
0.000
0.000
0.000
0.000
0.000
0.000
0.000
0.000
0.000
0.000
0.000
0.000
0.000
0.000
0.000
0.000
0.000
0.000
0.000
0.000
0.000
0.000
0.000
0.000
0.000
0.000
0.000
0.000
0.000
0.000
0.000
0.000
0.000
0.000
0.000
0.000
0.000
0.000
0.000
0.000
0.000
0.000
0.000
0.000
0.000
0.000
0.000
0.000
0.000
0.000
0.000
0.000
0.000
0.000
0.000
0.000
0.000
0.000
0.000
0.000
0.000
0.000
0.000
0.000
0.000
0.000
0.000
0.000
0.000
0.000
0.000
0.000
0.000
0.000
0.000
0.000
0.000
0.000
0.000
0.000
0.000
0.000
0.000
0.000
0.000
0.000
0.000
0.000
0.000
0.000
0.000
0.000
0.000
0.000
0.000
0.000
0.000
0.000
0.000
0.000
0.000
0.000
0.000
0.000
0.000
0.000
0.000
0.000
0.000
0.000
0.000
0.000
0.000
0.000
0.000
0.000
0.000
0.000
0.000
0.000
0.000
0.000
0.000
0.000
0.000
0.000
0.000
0.000
0.000
0.000
0.000
0.000
0.000
0.000
0.000
0.000
0.000
0.000
0.000
0.000
0.000
0.000
0.000
0.000
0.000
0.000
0.000
0.000
0.000
0.000
0.000
0.000
0.000
0.000
0.000
0.000
0.000
0.000
0.000
0.000
0.000
0.000
0.000
0.000
0.000
0.000
0.000
0.000
0.000
0.000
0.000
0.000
0.000
0.000
0.000
0.000
0.000
0.000
0.000
0.000
0.000
0.000
0.000
0.000
0.000
0.000
0.000
0.000
0.000
0.000
0.000
0.000
0.000
0.000
0.000
0.000
0.000
0.000
0.000
0.000
0.000
0.000
0.000
0.000
0.000
0.000
0.000
0.000
0.000
0.000
0.000
0.000
0.000
0.000
0.000
0.000
0.000
0.000
0.000
0.000
0.000
0.000
#ENDOFDATA   :