File: data/SEM-data_2024/artifact_surfaces/P1-231_artifact_mw_analysis_2_region/spectrum.emsa
#FORMAT      : EMSA/MAS Spectral Data File
#VERSION     : 1.0
#TITLE       : EDS Spectrum
#DATE        : 19-SEP-2024
#TIME        : 11:20
#OWNER       : Thermo Fisher Scientific Inc.
#NPOINTS     : 2048.
#NCOLUMNS    : 1.
#XUNITS      : eV
#YUNITS      : Counts
#DATATYPE    : Y
#XPERCHAN    : 9.933
#OFFSET      : -44.878
#XLABEL      : Energy
#YLABEL      : Counts
#SIGNALTYPE  : EDS
#BEAMKV      : 15.000
#AZIMANGLE-dg: 0.0
#ELEVANGLE-dg: 28.5
#LIVETIME    : 41.738
#REALTIME    : 51.593
#EDSDET      : SDUTW
##MNFWHM     : 126.3
##INSTRUMENT : MVE075582-10647-L
##SLOWTPEAK  : 0.000004000
##FASTTPEAK  : 0.000000100
##OPTICALWD  : 0.005500000
##WD         : 0.006872113
##SDDAREA    : 0.000025
##CCORR      : 260.454
##SCORR      : LIN
#SPECTRUM    : Spectral Data Starts Here
0.000
0.000
0.000
0.000
0.000
0.000
0.000
64.000
48.000
26.000
35.000
40.000
46.000
70.000
159.000
351.000
528.000
394.000
131.000
92.000
88.000
145.000
153.000
153.000
285.000
622.000
1950.000
5025.000
7717.000
6226.000
2343.000
504.000
143.000
116.000
131.000
120.000
223.000
293.000
250.000
184.000
121.000
77.000
84.000
75.000
86.000
91.000
97.000
81.000
84.000
101.000
136.000
158.000
309.000
589.000
792.000
709.000
405.000
181.000
128.000
125.000
115.000
115.000
156.000
150.000
185.000
210.000
216.000
139.000
132.000
135.000
135.000
136.000
174.000
252.000
508.000
972.000
1486.000
1553.000
1192.000
676.000
325.000
217.000
164.000
178.000
228.000
399.000
1121.000
3006.000
6210.000
8725.000
8340.000
5705.000
2863.000
1155.000
563.000
431.000
257.000
139.000
104.000
75.000
89.000
116.000
103.000
120.000
109.000
103.000
93.000
89.000
102.000
73.000
85.000
83.000
77.000
82.000
76.000
78.000
92.000
86.000
99.000
82.000
97.000
62.000
82.000
81.000
87.000
80.000
76.000
77.000
88.000
66.000
71.000
69.000
81.000
98.000
107.000
110.000
85.000
78.000
63.000
75.000
76.000
65.000
75.000
75.000
70.000
93.000
64.000
68.000
85.000
62.000
68.000
75.000
62.000
76.000
61.000
77.000
69.000
57.000
74.000
92.000
78.000
61.000
71.000
69.000
59.000
83.000
90.000
114.000
130.000
132.000
137.000
106.000
79.000
64.000
56.000
63.000
53.000
55.000
85.000
53.000
65.000
80.000
64.000
69.000
71.000
86.000
74.000
85.000
95.000
85.000
78.000
77.000
69.000
58.000
44.000
42.000
54.000
60.000
52.000
51.000
63.000
52.000
64.000
63.000
59.000
54.000
49.000
58.000
50.000
48.000
52.000
51.000
60.000
41.000
55.000
47.000
53.000
46.000
41.000
42.000
48.000
46.000
47.000
49.000
50.000
47.000
69.000
58.000
68.000
75.000
71.000
60.000
56.000
46.000
48.000
46.000
39.000
41.000
40.000
52.000
49.000
36.000
48.000
40.000
36.000
37.000
42.000
48.000
56.000
41.000
39.000
44.000
39.000
46.000
31.000
34.000
34.000
42.000
36.000
43.000
37.000
42.000
57.000
41.000
36.000
42.000
38.000
40.000
42.000
40.000
26.000
37.000
32.000
34.000
35.000
29.000
34.000
29.000
34.000
44.000
41.000
40.000
33.000
40.000
38.000
30.000
34.000
33.000
30.000
32.000
32.000
41.000
32.000
37.000
36.000
29.000
43.000
30.000
41.000
35.000
34.000
39.000
23.000
28.000
17.000
29.000
36.000
31.000
29.000
31.000
26.000
28.000
30.000
22.000
44.000
37.000
36.000
33.000
49.000
63.000
90.000
140.000
200.000
236.000
269.000
265.000
201.000
156.000
104.000
71.000
53.000
39.000
24.000
27.000
41.000
26.000
29.000
32.000
26.000
23.000
23.000
21.000
28.000
28.000
33.000
18.000
27.000
28.000
23.000
36.000
26.000
40.000
28.000
31.000
32.000
52.000
44.000
41.000
50.000
44.000
34.000
38.000
30.000
24.000
20.000
22.000
22.000
18.000
19.000
22.000
23.000
22.000
14.000
26.000
22.000
20.000
19.000
19.000
26.000
28.000
16.000
25.000
12.000
17.000
15.000
10.000
23.000
22.000
8.000
23.000
19.000
12.000
19.000
19.000
13.000
18.000
10.000
17.000
19.000
16.000
16.000
21.000
19.000
13.000
19.000
18.000
26.000
12.000
15.000
22.000
19.000
18.000
14.000
21.000
6.000
17.000
15.000
13.000
20.000
17.000
19.000
13.000
11.000
21.000
13.000
17.000
16.000
16.000
20.000
13.000
21.000
15.000
14.000
21.000
18.000
17.000
23.000
14.000
26.000
18.000
18.000
15.000
15.000
13.000
13.000
15.000
12.000
13.000
13.000
5.000
7.000
16.000
9.000
11.000
13.000
18.000
14.000
9.000
11.000
20.000
18.000
8.000
11.000
15.000
10.000
11.000
15.000
4.000
7.000
13.000
9.000
14.000
8.000
8.000
17.000
10.000
10.000
11.000
12.000
7.000
10.000
11.000
11.000
8.000
17.000
12.000
9.000
7.000
13.000
11.000
9.000
9.000
10.000
12.000
14.000
11.000
12.000
9.000
3.000
7.000
4.000
16.000
10.000
9.000
4.000
9.000
11.000
7.000
7.000
13.000
12.000
10.000
14.000
14.000
11.000
6.000
8.000
13.000
7.000
8.000
9.000
12.000
11.000
8.000
7.000
8.000
6.000
9.000
10.000
11.000
9.000
4.000
6.000
7.000
7.000
11.000
4.000
7.000
12.000
5.000
5.000
7.000
5.000
8.000
4.000
8.000
7.000
6.000
3.000
8.000
6.000
3.000
2.000
7.000
9.000
7.000
6.000
7.000
7.000
8.000
3.000
4.000
2.000
6.000
6.000
6.000
5.000
10.000
9.000
5.000
4.000
7.000
4.000
4.000
3.000
3.000
3.000
8.000
8.000
3.000
7.000
3.000
7.000
4.000
2.000
2.000
7.000
7.000
7.000
5.000
5.000
5.000
4.000
6.000
3.000
3.000
3.000
2.000
5.000
4.000
2.000
9.000
3.000
3.000
7.000
4.000
3.000
3.000
4.000
5.000
1.000
1.000
1.000
4.000
6.000
4.000
3.000
2.000
5.000
4.000
5.000
2.000
7.000
4.000
6.000
2.000
1.000
2.000
2.000
5.000
0.000
4.000
3.000
5.000
4.000
0.000
3.000
1.000
4.000
0.000
2.000
3.000
2.000
1.000
1.000
0.000
3.000
1.000
7.000
6.000
0.000
3.000
3.000
1.000
4.000
1.000
4.000
4.000
1.000
3.000
1.000
4.000
3.000
0.000
4.000
0.000
1.000
1.000
0.000
4.000
7.000
4.000
1.000
2.000
2.000
1.000
1.000
2.000
1.000
3.000
2.000
1.000
1.000
3.000
2.000
3.000
1.000
1.000
3.000
2.000
3.000
1.000
2.000
2.000
2.000
1.000
1.000
1.000
3.000
1.000
0.000
2.000
1.000
1.000
2.000
1.000
0.000
1.000
0.000
0.000
1.000
2.000
0.000
0.000
0.000
1.000
2.000
0.000
0.000
0.000
0.000
0.000
0.000
0.000
0.000
0.000
1.000
0.000
1.000
1.000
0.000
0.000
1.000
0.000
0.000
0.000
0.000
0.000
1.000
0.000
1.000
0.000
0.000
0.000
0.000
0.000
0.000
0.000
0.000
0.000
0.000
0.000
0.000
0.000
0.000
0.000
0.000
0.000
0.000
0.000
0.000
0.000
0.000
0.000
0.000
0.000
0.000
0.000
0.000
0.000
0.000
0.000
0.000
0.000
0.000
0.000
0.000
0.000
0.000
0.000
0.000
0.000
0.000
0.000
0.000
0.000
0.000
0.000
0.000
0.000
0.000
0.000
0.000
0.000
0.000
0.000
0.000
0.000
0.000
0.000
0.000
0.000
0.000
0.000
0.000
0.000
0.000
0.000
0.000
0.000
0.000
0.000
0.000
0.000
0.000
0.000
0.000
0.000
0.000
0.000
0.000
0.000
0.000
0.000
0.000
0.000
0.000
0.000
0.000
0.000
0.000
0.000
0.000
0.000
0.000
0.000
0.000
0.000
0.000
0.000
0.000
0.000
0.000
0.000
0.000
0.000
0.000
0.000
0.000
0.000
0.000
0.000
0.000
0.000
0.000
0.000
0.000
0.000
0.000
0.000
0.000
0.000
0.000
0.000
0.000
0.000
0.000
0.000
0.000
0.000
0.000
0.000
0.000
0.000
0.000
0.000
0.000
0.000
0.000
0.000
0.000
0.000
0.000
0.000
0.000
0.000
0.000
0.000
0.000
0.000
0.000
0.000
0.000
0.000
0.000
0.000
0.000
0.000
0.000
0.000
0.000
0.000
0.000
0.000
0.000
0.000
0.000
0.000
0.000
0.000
0.000
0.000
0.000
0.000
0.000
0.000
0.000
0.000
0.000
0.000
0.000
0.000
0.000
0.000
0.000
0.000
0.000
0.000
0.000
0.000
0.000
0.000
0.000
0.000
0.000
0.000
0.000
0.000
0.000
0.000
0.000
0.000
0.000
0.000
0.000
0.000
0.000
0.000
0.000
0.000
0.000
0.000
0.000
0.000
0.000
0.000
0.000
0.000
0.000
0.000
0.000
0.000
0.000
0.000
0.000
0.000
0.000
0.000
0.000
0.000
0.000
0.000
0.000
0.000
0.000
0.000
0.000
0.000
0.000
0.000
0.000
0.000
0.000
0.000
0.000
0.000
0.000
0.000
0.000
0.000
0.000
0.000
0.000
0.000
0.000
0.000
0.000
0.000
0.000
0.000
0.000
0.000
0.000
0.000
0.000
0.000
0.000
0.000
0.000
0.000
0.000
0.000
0.000
0.000
0.000
0.000
0.000
0.000
0.000
0.000
0.000
0.000
0.000
0.000
0.000
#ENDOFDATA   :