File: data/SEM-data_2024/artifact_surfaces/P1-495_artifact_002_analysis_mw_region/spectrum.emsa
#FORMAT      : EMSA/MAS Spectral Data File
#VERSION     : 1.0
#TITLE       : EDS Spectrum
#DATE        : 19-SEP-2024
#TIME        : 11:20
#OWNER       : Thermo Fisher Scientific Inc.
#NPOINTS     : 2048.
#NCOLUMNS    : 1.
#XUNITS      : eV
#YUNITS      : Counts
#DATATYPE    : Y
#XPERCHAN    : 9.933
#OFFSET      : -44.878
#XLABEL      : Energy
#YLABEL      : Counts
#SIGNALTYPE  : EDS
#BEAMKV      : 15.000
#AZIMANGLE-dg: 0.0
#ELEVANGLE-dg: 28.5
#LIVETIME    : 33.668
#REALTIME    : 41.961
#EDSDET      : SDUTW
##MNFWHM     : 126.3
##INSTRUMENT : MVE075582-10647-L
##SLOWTPEAK  : 0.000004000
##FASTTPEAK  : 0.000000100
##OPTICALWD  : 0.005500000
##WD         : 0.010588
##SDDAREA    : 0.000025
##CCORR      : 260.454
##SCORR      : LIN
#SPECTRUM    : Spectral Data Starts Here
0.000
0.000
0.000
0.000
0.000
0.000
0.000
90.000
66.000
42.000
52.000
49.000
55.000
89.000
210.000
401.000
574.000
416.000
220.000
121.000
136.000
186.000
213.000
228.000
335.000
849.000
2677.000
6605.000
10068.000
7571.000
2898.000
586.000
161.000
123.000
122.000
154.000
206.000
279.000
253.000
164.000
133.000
109.000
118.000
127.000
102.000
117.000
138.000
117.000
124.000
128.000
186.000
191.000
419.000
751.000
934.000
859.000
474.000
232.000
144.000
150.000
141.000
121.000
126.000
153.000
172.000
245.000
189.000
162.000
143.000
125.000
144.000
154.000
161.000
265.000
489.000
1058.000
1481.000
1670.000
1140.000
659.000
302.000
215.000
191.000
166.000
197.000
395.000
1104.000
2771.000
5702.000
7765.000
7586.000
5097.000
2492.000
1032.000
539.000
382.000
215.000
131.000
103.000
100.000
86.000
85.000
95.000
104.000
110.000
94.000
77.000
70.000
65.000
81.000
71.000
61.000
82.000
66.000
77.000
79.000
75.000
82.000
88.000
83.000
82.000
56.000
74.000
83.000
65.000
90.000
66.000
56.000
55.000
73.000
83.000
60.000
58.000
79.000
74.000
81.000
73.000
64.000
55.000
69.000
56.000
67.000
60.000
60.000
48.000
64.000
74.000
59.000
54.000
60.000
52.000
45.000
58.000
48.000
51.000
51.000
43.000
50.000
31.000
45.000
41.000
46.000
55.000
63.000
63.000
78.000
90.000
128.000
198.000
157.000
182.000
127.000
77.000
59.000
62.000
39.000
36.000
38.000
45.000
46.000
53.000
55.000
53.000
62.000
71.000
68.000
69.000
93.000
74.000
61.000
63.000
70.000
48.000
40.000
40.000
43.000
44.000
48.000
35.000
31.000
31.000
42.000
41.000
42.000
40.000
34.000
44.000
37.000
37.000
29.000
39.000
29.000
35.000
29.000
35.000
25.000
43.000
38.000
29.000
30.000
19.000
35.000
36.000
39.000
36.000
38.000
40.000
35.000
46.000
39.000
43.000
41.000
24.000
32.000
29.000
31.000
43.000
28.000
29.000
30.000
34.000
27.000
22.000
48.000
30.000
33.000
32.000
33.000
34.000
32.000
27.000
31.000
25.000
26.000
38.000
29.000
25.000
27.000
16.000
22.000
42.000
29.000
23.000
24.000
29.000
34.000
22.000
23.000
34.000
38.000
27.000
33.000
24.000
33.000
21.000
32.000
20.000
30.000
31.000
24.000
25.000
14.000
15.000
20.000
27.000
21.000
19.000
18.000
27.000
24.000
12.000
23.000
22.000
24.000
25.000
20.000
21.000
29.000
19.000
19.000
22.000
21.000
23.000
19.000
14.000
22.000
24.000
26.000
29.000
21.000
23.000
18.000
25.000
24.000
18.000
24.000
17.000
16.000
39.000
25.000
51.000
66.000
79.000
96.000
124.000
99.000
103.000
76.000
40.000
28.000
34.000
25.000
13.000
27.000
10.000
15.000
15.000
14.000
20.000
19.000
18.000
15.000
12.000
17.000
13.000
16.000
14.000
15.000
13.000
17.000
22.000
22.000
14.000
17.000
9.000
22.000
21.000
27.000
33.000
15.000
25.000
22.000
22.000
19.000
16.000
12.000
13.000
14.000
7.000
13.000
18.000
12.000
13.000
24.000
15.000
14.000
7.000
13.000
15.000
12.000
12.000
16.000
15.000
11.000
16.000
14.000
16.000
14.000
8.000
12.000
11.000
11.000
17.000
12.000
7.000
13.000
14.000
14.000
12.000
8.000
9.000
7.000
12.000
12.000
9.000
8.000
11.000
13.000
21.000
9.000
11.000
5.000
8.000
14.000
13.000
13.000
12.000
12.000
16.000
7.000
9.000
14.000
13.000
14.000
8.000
5.000
13.000
11.000
8.000
8.000
14.000
9.000
13.000
7.000
13.000
10.000
13.000
6.000
10.000
12.000
9.000
9.000
8.000
9.000
11.000
9.000
7.000
6.000
12.000
4.000
10.000
10.000
5.000
7.000
14.000
5.000
12.000
9.000
5.000
6.000
9.000
8.000
11.000
7.000
11.000
11.000
9.000
6.000
9.000
7.000
7.000
7.000
6.000
8.000
3.000
4.000
5.000
6.000
5.000
4.000
1.000
5.000
6.000
12.000
9.000
8.000
2.000
4.000
10.000
7.000
4.000
5.000
11.000
6.000
7.000
6.000
4.000
9.000
12.000
8.000
8.000
8.000
6.000
8.000
6.000
7.000
2.000
6.000
1.000
7.000
7.000
6.000
7.000
2.000
4.000
4.000
7.000
6.000
8.000
5.000
5.000
3.000
6.000
2.000
4.000
8.000
3.000
7.000
5.000
5.000
5.000
7.000
5.000
6.000
8.000
4.000
3.000
3.000
4.000
6.000
1.000
3.000
6.000
5.000
7.000
1.000
4.000
4.000
3.000
4.000
5.000
6.000
6.000
2.000
4.000
2.000
3.000
4.000
2.000
5.000
1.000
3.000
3.000
2.000
4.000
2.000
4.000
3.000
1.000
4.000
2.000
2.000
5.000
4.000
5.000
2.000
2.000
2.000
6.000
3.000
1.000
3.000
2.000
2.000
2.000
2.000
3.000
1.000
3.000
4.000
1.000
3.000
0.000
1.000
2.000
2.000
2.000
2.000
4.000
2.000
2.000
6.000
1.000
1.000
1.000
0.000
1.000
2.000
2.000
1.000
1.000
1.000
0.000
1.000
3.000
5.000
4.000
0.000
2.000
1.000
3.000
0.000
2.000
3.000
3.000
0.000
3.000
0.000
1.000
0.000
1.000
2.000
0.000
2.000
0.000
1.000
1.000
1.000
0.000
3.000
1.000
1.000
0.000
3.000
1.000
4.000
1.000
1.000
4.000
1.000
0.000
1.000
2.000
2.000
3.000
0.000
1.000
0.000
1.000
0.000
0.000
2.000
1.000
0.000
2.000
0.000
0.000
0.000
0.000
0.000
2.000
0.000
0.000
1.000
0.000
1.000
0.000
0.000
1.000
0.000
0.000
3.000
1.000
1.000
0.000
0.000
0.000
0.000
0.000
0.000
2.000
0.000
0.000
1.000
0.000
0.000
2.000
1.000
0.000
0.000
0.000
0.000
2.000
1.000
0.000
0.000
0.000
0.000
0.000
0.000
1.000
0.000
0.000
0.000
0.000
0.000
0.000
0.000
0.000
0.000
0.000
0.000
0.000
0.000
0.000
0.000
0.000
0.000
0.000
0.000
0.000
0.000
0.000
0.000
0.000
0.000
0.000
0.000
0.000
0.000
0.000
0.000
0.000
0.000
0.000
0.000
0.000
0.000
0.000
0.000
0.000
0.000
0.000
0.000
0.000
0.000
0.000
0.000
0.000
0.000
0.000
0.000
0.000
0.000
0.000
0.000
0.000
0.000
0.000
0.000
0.000
0.000
0.000
0.000
0.000
0.000
0.000
0.000
0.000
0.000
0.000
0.000
0.000
0.000
0.000
0.000
0.000
0.000
0.000
0.000
0.000
0.000
0.000
0.000
0.000
0.000
0.000
0.000
0.000
0.000
0.000
0.000
0.000
0.000
0.000
0.000
0.000
0.000
0.000
0.000
0.000
0.000
0.000
0.000
0.000
0.000
0.000
0.000
0.000
0.000
0.000
0.000
0.000
0.000
0.000
0.000
0.000
0.000
0.000
0.000
0.000
0.000
0.000
0.000
0.000
0.000
0.000
0.000
0.000
0.000
0.000
0.000
0.000
0.000
0.000
0.000
0.000
0.000
0.000
0.000
0.000
0.000
0.000
0.000
0.000
0.000
0.000
0.000
0.000
0.000
0.000
0.000
0.000
0.000
0.000
0.000
0.000
0.000
0.000
0.000
0.000
0.000
0.000
0.000
0.000
0.000
0.000
0.000
0.000
0.000
0.000
0.000
0.000
0.000
0.000
0.000
0.000
0.000
0.000
0.000
0.000
0.000
0.000
0.000
0.000
0.000
0.000
0.000
0.000
0.000
0.000
0.000
0.000
0.000
0.000
0.000
0.000
0.000
0.000
0.000
0.000
0.000
0.000
0.000
0.000
0.000
0.000
0.000
0.000
0.000
0.000
0.000
0.000
0.000
0.000
0.000
0.000
0.000
0.000
0.000
0.000
0.000
0.000
0.000
0.000
0.000
0.000
0.000
0.000
0.000
0.000
0.000
0.000
0.000
0.000
0.000
0.000
0.000
0.000
0.000
0.000
0.000
0.000
0.000
0.000
0.000
0.000
0.000
0.000
0.000
0.000
0.000
0.000
0.000
0.000
0.000
0.000
0.000
0.000
0.000
0.000
0.000
0.000
0.000
0.000
0.000
0.000
0.000
0.000
0.000
0.000
0.000
0.000
0.000
0.000
0.000
0.000
0.000
0.000
0.000
0.000
0.000
0.000
0.000
0.000
0.000
0.000
0.000
0.000
0.000
0.000
0.000
0.000
0.000
0.000
0.000
0.000
0.000
0.000
0.000
0.000
0.000
0.000
0.000
0.000
0.000
0.000
0.000
0.000
0.000
0.000
0.000
0.000
0.000
0.000
#ENDOFDATA   :