File: data/SEM-data_2024/artifact_surfaces/P5-1843_artifact_002_analysis_mw_region/spectrum.emsa
#FORMAT      : EMSA/MAS Spectral Data File
#VERSION     : 1.0
#TITLE       : EDS Spectrum
#DATE        : 19-SEP-2024
#TIME        : 11:20
#OWNER       : Thermo Fisher Scientific Inc.
#NPOINTS     : 2048.
#NCOLUMNS    : 1.
#XUNITS      : eV
#YUNITS      : Counts
#DATATYPE    : Y
#XPERCHAN    : 9.933
#OFFSET      : -44.878
#XLABEL      : Energy
#YLABEL      : Counts
#SIGNALTYPE  : EDS
#BEAMKV      : 15.000
#AZIMANGLE-dg: 0.0
#ELEVANGLE-dg: 28.5
#LIVETIME    : 35.879
#REALTIME    : 44.160
#EDSDET      : SDUTW
##MNFWHM     : 126.3
##INSTRUMENT : MVE075582-10647-L
##SLOWTPEAK  : 0.000004000
##FASTTPEAK  : 0.000000100
##OPTICALWD  : 0.005500000
##WD         : 0.0104517
##SDDAREA    : 0.000025
##CCORR      : 260.454
##SCORR      : LIN
#SPECTRUM    : Spectral Data Starts Here
0.000
0.000
0.000
0.000
0.000
0.000
0.000
88.000
60.000
56.000
42.000
45.000
63.000
127.000
286.000
616.000
841.000
619.000
241.000
140.000
177.000
223.000
227.000
262.000
370.000
872.000
2695.000
6760.000
10188.000
8088.000
3081.000
585.000
161.000
136.000
146.000
183.000
256.000
338.000
306.000
204.000
175.000
132.000
102.000
109.000
107.000
105.000
118.000
118.000
139.000
151.000
133.000
171.000
334.000
551.000
753.000
693.000
389.000
206.000
141.000
123.000
138.000
157.000
193.000
259.000
389.000
426.000
341.000
232.000
167.000
137.000
149.000
154.000
164.000
236.000
573.000
1108.000
1747.000
1857.000
1374.000
715.000
342.000
238.000
184.000
169.000
195.000
336.000
912.000
2448.000
5107.000
7031.000
6933.000
4651.000
2182.000
948.000
482.000
341.000
198.000
126.000
102.000
92.000
75.000
73.000
84.000
98.000
85.000
88.000
85.000
76.000
64.000
72.000
59.000
64.000
52.000
54.000
84.000
81.000
86.000
82.000
94.000
85.000
85.000
73.000
65.000
70.000
57.000
68.000
61.000
72.000
55.000
64.000
51.000
71.000
75.000
97.000
90.000
74.000
84.000
66.000
65.000
57.000
56.000
62.000
58.000
68.000
53.000
56.000
53.000
62.000
58.000
45.000
39.000
50.000
46.000
44.000
61.000
36.000
52.000
50.000
42.000
51.000
48.000
60.000
50.000
47.000
72.000
88.000
115.000
166.000
182.000
231.000
208.000
138.000
81.000
76.000
49.000
39.000
41.000
42.000
48.000
65.000
42.000
53.000
70.000
63.000
61.000
88.000
70.000
104.000
77.000
83.000
69.000
74.000
34.000
39.000
48.000
44.000
36.000
38.000
36.000
40.000
40.000
45.000
36.000
34.000
32.000
34.000
44.000
47.000
30.000
42.000
42.000
23.000
39.000
29.000
28.000
27.000
40.000
44.000
26.000
40.000
27.000
35.000
29.000
45.000
23.000
41.000
38.000
47.000
48.000
47.000
54.000
44.000
38.000
32.000
28.000
29.000
23.000
16.000
25.000
27.000
27.000
30.000
46.000
28.000
34.000
31.000
29.000
31.000
32.000
35.000
27.000
23.000
33.000
16.000
20.000
30.000
31.000
25.000
21.000
23.000
21.000
29.000
28.000
24.000
23.000
27.000
26.000
26.000
20.000
24.000
29.000
29.000
22.000
23.000
20.000
19.000
27.000
20.000
25.000
26.000
23.000
26.000
28.000
29.000
21.000
20.000
19.000
17.000
30.000
24.000
14.000
27.000
17.000
25.000
20.000
32.000
24.000
12.000
24.000
12.000
33.000
22.000
27.000
20.000
23.000
16.000
23.000
25.000
22.000
22.000
19.000
13.000
21.000
15.000
19.000
23.000
28.000
14.000
27.000
43.000
53.000
85.000
98.000
111.000
124.000
109.000
116.000
88.000
60.000
38.000
35.000
18.000
21.000
20.000
16.000
19.000
21.000
22.000
19.000
13.000
18.000
11.000
12.000
22.000
16.000
21.000
18.000
12.000
11.000
21.000
13.000
12.000
20.000
22.000
21.000
22.000
30.000
24.000
30.000
21.000
21.000
21.000
17.000
17.000
5.000
15.000
14.000
13.000
12.000
12.000
7.000
11.000
13.000
7.000
9.000
9.000
13.000
11.000
20.000
14.000
18.000
17.000
10.000
14.000
17.000
12.000
10.000
9.000
15.000
9.000
8.000
10.000
10.000
11.000
13.000
14.000
13.000
13.000
13.000
15.000
15.000
11.000
14.000
8.000
12.000
13.000
9.000
9.000
9.000
13.000
11.000
10.000
11.000
10.000
9.000
13.000
8.000
6.000
7.000
7.000
5.000
9.000
9.000
11.000
8.000
11.000
8.000
8.000
5.000
9.000
11.000
6.000
8.000
2.000
9.000
11.000
5.000
14.000
10.000
10.000
12.000
6.000
10.000
14.000
13.000
4.000
9.000
7.000
9.000
4.000
15.000
10.000
8.000
5.000
7.000
5.000
6.000
9.000
11.000
6.000
6.000
6.000
6.000
8.000
2.000
7.000
5.000
12.000
6.000
6.000
7.000
3.000
5.000
8.000
8.000
9.000
5.000
6.000
3.000
12.000
6.000
7.000
4.000
8.000
8.000
13.000
7.000
1.000
7.000
5.000
7.000
4.000
11.000
6.000
5.000
3.000
6.000
9.000
3.000
5.000
2.000
4.000
9.000
5.000
5.000
7.000
3.000
7.000
4.000
3.000
8.000
4.000
7.000
6.000
9.000
8.000
2.000
5.000
6.000
4.000
6.000
4.000
5.000
10.000
10.000
4.000
6.000
5.000
3.000
9.000
3.000
6.000
4.000
8.000
8.000
4.000
4.000
5.000
5.000
3.000
3.000
10.000
5.000
8.000
1.000
2.000
4.000
2.000
3.000
3.000
9.000
6.000
3.000
2.000
4.000
3.000
3.000
2.000
4.000
2.000
3.000
4.000
8.000
0.000
6.000
4.000
5.000
4.000
1.000
5.000
2.000
2.000
1.000
0.000
3.000
4.000
3.000
2.000
0.000
2.000
4.000
2.000
4.000
2.000
8.000
3.000
2.000
3.000
1.000
3.000
4.000
1.000
3.000
2.000
3.000
3.000
2.000
2.000
4.000
1.000
1.000
2.000
5.000
1.000
1.000
0.000
5.000
5.000
0.000
3.000
2.000
2.000
3.000
1.000
2.000
6.000
2.000
5.000
7.000
2.000
1.000
1.000
2.000
1.000
0.000
2.000
0.000
1.000
1.000
3.000
0.000
4.000
0.000
1.000
1.000
0.000
4.000
0.000
2.000
2.000
1.000
0.000
2.000
2.000
0.000
1.000
2.000
2.000
0.000
1.000
1.000
2.000
1.000
2.000
4.000
0.000
4.000
1.000
2.000
2.000
0.000
1.000
1.000
2.000
4.000
0.000
2.000
0.000
3.000
0.000
0.000
0.000
2.000
3.000
0.000
3.000
0.000
2.000
0.000
1.000
0.000
2.000
1.000
2.000
0.000
1.000
0.000
0.000
1.000
0.000
0.000
0.000
0.000
1.000
1.000
0.000
0.000
0.000
0.000
0.000
1.000
0.000
0.000
2.000
0.000
0.000
0.000
3.000
0.000
0.000
0.000
0.000
0.000
0.000
0.000
0.000
0.000
0.000
0.000
0.000
0.000
0.000
0.000
0.000
1.000
0.000
0.000
0.000
0.000
0.000
1.000
0.000
0.000
0.000
0.000
0.000
0.000
0.000
0.000
0.000
0.000
0.000
0.000
0.000
0.000
0.000
0.000
0.000
0.000
0.000
0.000
0.000
0.000
0.000
0.000
0.000
0.000
0.000
0.000
0.000
0.000
0.000
0.000
0.000
0.000
0.000
0.000
0.000
0.000
0.000
0.000
0.000
0.000
0.000
0.000
0.000
0.000
0.000
0.000
0.000
0.000
0.000
0.000
0.000
0.000
0.000
0.000
0.000
0.000
0.000
0.000
0.000
0.000
0.000
0.000
0.000
0.000
0.000
0.000
0.000
0.000
0.000
0.000
0.000
0.000
0.000
0.000
0.000
0.000
0.000
0.000
0.000
0.000
0.000
0.000
0.000
0.000
0.000
0.000
0.000
0.000
0.000
0.000
0.000
0.000
0.000
0.000
0.000
0.000
0.000
0.000
0.000
0.000
0.000
0.000
0.000
0.000
0.000
0.000
0.000
0.000
0.000
0.000
0.000
0.000
0.000
0.000
0.000
0.000
0.000
0.000
0.000
0.000
0.000
0.000
0.000
0.000
0.000
0.000
0.000
0.000
0.000
0.000
0.000
0.000
0.000
0.000
0.000
0.000
0.000
0.000
0.000
0.000
0.000
0.000
0.000
0.000
0.000
0.000
0.000
0.000
0.000
0.000
0.000
0.000
0.000
0.000
0.000
0.000
0.000
0.000
0.000
0.000
0.000
0.000
0.000
0.000
0.000
0.000
0.000
0.000
0.000
0.000
0.000
0.000
0.000
0.000
0.000
0.000
0.000
0.000
0.000
0.000
0.000
0.000
0.000
0.000
0.000
0.000
0.000
0.000
0.000
0.000
0.000
0.000
0.000
0.000
0.000
0.000
0.000
0.000
0.000
0.000
0.000
0.000
0.000
0.000
0.000
0.000
0.000
0.000
0.000
0.000
0.000
0.000
0.000
0.000
0.000
0.000
0.000
0.000
0.000
0.000
0.000
0.000
0.000
0.000
0.000
0.000
0.000
0.000
0.000
0.000
0.000
0.000
0.000
0.000
0.000
0.000
0.000
0.000
0.000
0.000
0.000
0.000
0.000
0.000
0.000
0.000
0.000
0.000
0.000
0.000
0.000
0.000
0.000
0.000
0.000
0.000
0.000
0.000
0.000
0.000
0.000
0.000
0.000
0.000
0.000
0.000
0.000
0.000
0.000
0.000
0.000
0.000
0.000
0.000
0.000
0.000
0.000
0.000
0.000
0.000
0.000
0.000
0.000
0.000
0.000
0.000
0.000
0.000
0.000
0.000
0.000
0.000
#ENDOFDATA   :