File: data/SEM-data_2024/cross_sections/P1-336_medial_analysis_1_map/spectrum.emsa
#FORMAT      : EMSA/MAS Spectral Data File
#VERSION     : 1.0
#TITLE       : EDS Spectrum
#DATE        : 19-SEP-2024
#TIME        : 14:36
#OWNER       : Thermo Fisher Scientific Inc.
#NPOINTS     : 2048.
#NCOLUMNS    : 1.
#XUNITS      : eV
#YUNITS      : Counts
#DATATYPE    : Y
#XPERCHAN    : 9.903
#OFFSET      : -56.900
#XLABEL      : Energy
#YLABEL      : Counts
#SIGNALTYPE  : EDS
#BEAMKV      : 15.000
#AZIMANGLE-dg: 0.0
#ELEVANGLE-dg: 28.5
#LIVETIME    : 112.848
#REALTIME    : 121.241
#EDSDET      : SDUTW
##MNFWHM     : 129.6
##INSTRUMENT : MVE075582-10647-L
##SLOWTPEAK  : 0.000001000
##FASTTPEAK  : 0.000000100
##OPTICALWD  : 0.005500000
##WD         : 0.006435105
##SDDAREA    : 0.000025
##CCORR      : 260.454
##SCORR      : LIN
#SPECTRUM    : Spectral Data Starts Here
0.000
0.000
0.000
0.000
0.000
0.000
0.000
0.000
0.000
0.000
0.000
0.000
0.000
106.000
915.000
2184.000
4256.000
5783.000
4379.000
2059.000
1189.000
1250.000
1501.000
1798.000
2251.000
4170.000
11593.000
32762.000
70495.000
93891.000
75505.000
34392.000
9295.000
2145.000
934.000
926.000
1049.000
1107.000
1307.000
1270.000
1139.000
1082.000
1047.000
1089.000
1080.000
1121.000
1198.000
1177.000
1350.000
1424.000
1582.000
1955.000
3158.000
6084.000
10593.000
13388.000
11990.000
7574.000
3868.000
2118.000
1656.000
1536.000
1732.000
1796.000
2004.000
2505.000
2486.000
2353.000
2206.000
1979.000
2018.000
2037.000
2237.000
2610.000
4213.000
8590.000
15837.000
22779.000
24563.000
19349.000
11559.000
6354.000
3745.000
3114.000
2979.000
3949.000
8087.000
21708.000
52558.000
98712.000
135592.000
136046.000
99847.000
56117.000
26617.000
12427.000
6999.000
4298.000
2650.000
1680.000
1205.000
1137.000
1134.000
1185.000
1229.000
1177.000
1113.000
1042.000
1026.000
1042.000
1055.000
1064.000
1098.000
1196.000
1225.000
1446.000
1611.000
1628.000
1557.000
1482.000
1467.000
1244.000
1133.000
1070.000
1081.000
1025.000
1052.000
1050.000
1018.000
1051.000
1124.000
1080.000
1133.000
1113.000
1162.000
1235.000
1189.000
1116.000
1080.000
1101.000
1014.000
1060.000
1069.000
1030.000
1019.000
1077.000
1017.000
1049.000
997.000
991.000
947.000
1028.000
1033.000
1021.000
1000.000
960.000
980.000
945.000
992.000
930.000
924.000
976.000
973.000
963.000
1021.000
958.000
1088.000
1136.000
1235.000
1206.000
1261.000
1177.000
1122.000
1088.000
1036.000
943.000
1055.000
1084.000
1081.000
1096.000
1019.000
990.000
1031.000
956.000
1109.000
1197.000
1517.000
1877.000
2243.000
2414.000
2305.000
1931.000
1468.000
1240.000
954.000
822.000
789.000
770.000
793.000
795.000
749.000
865.000
856.000
942.000
951.000
985.000
978.000
893.000
941.000
813.000
769.000
730.000
765.000
750.000
696.000
717.000
752.000
723.000
707.000
731.000
747.000
697.000
704.000
713.000
720.000
718.000
774.000
727.000
867.000
866.000
856.000
876.000
823.000
857.000
746.000
679.000
688.000
685.000
653.000
706.000
617.000
646.000
653.000
664.000
599.000
657.000
647.000
628.000
648.000
611.000
624.000
599.000
623.000
649.000
619.000
638.000
618.000
651.000
611.000
599.000
556.000
552.000
603.000
570.000
580.000
539.000
584.000
598.000
547.000
553.000
585.000
502.000
592.000
559.000
502.000
555.000
541.000
519.000
536.000
577.000
513.000
524.000
522.000
511.000
551.000
511.000
487.000
480.000
458.000
512.000
497.000
493.000
468.000
505.000
456.000
521.000
518.000
525.000
571.000
579.000
577.000
610.000
581.000
542.000
529.000
504.000
472.000
485.000
437.000
472.000
484.000
451.000
431.000
467.000
392.000
426.000
406.000
409.000
467.000
498.000
534.000
576.000
672.000
812.000
987.000
1126.000
1140.000
1105.000
957.000
789.000
650.000
545.000
474.000
432.000
407.000
405.000
395.000
408.000
401.000
386.000
359.000
376.000
383.000
361.000
387.000
361.000
341.000
383.000
374.000
343.000
387.000
366.000
335.000
356.000
387.000
365.000
435.000
426.000
446.000
460.000
419.000
407.000
404.000
359.000
338.000
317.000
336.000
336.000
346.000
302.000
305.000
292.000
327.000
305.000
334.000
341.000
309.000
323.000
303.000
311.000
306.000
324.000
296.000
316.000
316.000
261.000
294.000
297.000
308.000
272.000
292.000
280.000
269.000
301.000
284.000
283.000
288.000
293.000
278.000
273.000
254.000
251.000
291.000
238.000
269.000
258.000
268.000
282.000
265.000
271.000
261.000
271.000
245.000
236.000
257.000
267.000
258.000
258.000
237.000
271.000
250.000
225.000
219.000
244.000
241.000
255.000
244.000
221.000
218.000
240.000
220.000
226.000
224.000
215.000
206.000
213.000
221.000
222.000
248.000
222.000
208.000
238.000
209.000
224.000
227.000
220.000
209.000
211.000
214.000
209.000
228.000
205.000
175.000
174.000
216.000
198.000
196.000
207.000
206.000
187.000
205.000
200.000
180.000
178.000
206.000
197.000
203.000
196.000
171.000
195.000
146.000
193.000
147.000
190.000
177.000
178.000
184.000
166.000
179.000
163.000
178.000
167.000
176.000
167.000
162.000
166.000
155.000
159.000
161.000
154.000
147.000
161.000
167.000
145.000
139.000
141.000
176.000
186.000
151.000
143.000
170.000
122.000
165.000
130.000
150.000
140.000
139.000
138.000
167.000
135.000
137.000
138.000
154.000
124.000
120.000
108.000
159.000
125.000
122.000
123.000
125.000
133.000
125.000
140.000
112.000
114.000
134.000
134.000
129.000
142.000
126.000
110.000
97.000
116.000
96.000
101.000
106.000
119.000
94.000
112.000
118.000
131.000
119.000
111.000
118.000
112.000
105.000
99.000
109.000
105.000
99.000
91.000
114.000
100.000
105.000
93.000
118.000
99.000
91.000
107.000
92.000
95.000
107.000
108.000
111.000
78.000
99.000
88.000
94.000
78.000
93.000
87.000
87.000
89.000
109.000
94.000
89.000
84.000
98.000
82.000
89.000
75.000
82.000
73.000
73.000
96.000
72.000
85.000
72.000
69.000
85.000
73.000
63.000
64.000
68.000
65.000
68.000
75.000
68.000
69.000
62.000
70.000
65.000
71.000
66.000
60.000
67.000
52.000
62.000
61.000
55.000
59.000
56.000
66.000
60.000
84.000
66.000
52.000
60.000
46.000
58.000
63.000
53.000
51.000
52.000
58.000
47.000
51.000
62.000
51.000
53.000
51.000
44.000
49.000
44.000
50.000
47.000
45.000
40.000
43.000
46.000
47.000
52.000
39.000
49.000
42.000
49.000
44.000
43.000
47.000
42.000
45.000
44.000
33.000
36.000
41.000
39.000
37.000
33.000
27.000
37.000
37.000
34.000
38.000
30.000
33.000
24.000
19.000
28.000
34.000
23.000
32.000
33.000
12.000
26.000
25.000
27.000
29.000
26.000
26.000
29.000
28.000
22.000
21.000
17.000
25.000
21.000
14.000
24.000
23.000
22.000
11.000
18.000
26.000
21.000
18.000
21.000
22.000
16.000
13.000
21.000
28.000
14.000
17.000
19.000
15.000
7.000
19.000
19.000
8.000
19.000
9.000
13.000
13.000
13.000
9.000
5.000
9.000
10.000
6.000
13.000
13.000
11.000
7.000
7.000
13.000
6.000
11.000
9.000
7.000
7.000
5.000
8.000
8.000
8.000
6.000
11.000
7.000
7.000
3.000
6.000
3.000
2.000
6.000
1.000
4.000
1.000
3.000
3.000
1.000
0.000
4.000
1.000
2.000
1.000
2.000
0.000
0.000
0.000
1.000
1.000
0.000
0.000
0.000
0.000
0.000
0.000
0.000
0.000
1.000
0.000
0.000
0.000
0.000
0.000
0.000
0.000
0.000
0.000
1.000
0.000
0.000
0.000
0.000
1.000
0.000
0.000
0.000
0.000
0.000
0.000
0.000
0.000
0.000
0.000
0.000
1.000
0.000
0.000
0.000
0.000
0.000
0.000
0.000
1.000
0.000
0.000
0.000
0.000
0.000
0.000
0.000
0.000
0.000
0.000
0.000
0.000
0.000
0.000
0.000
0.000
0.000
0.000
0.000
0.000
0.000
0.000
0.000
0.000
0.000
0.000
0.000
1.000
0.000
0.000
0.000
0.000
0.000
0.000
0.000
0.000
0.000
0.000
0.000
0.000
0.000
0.000
0.000
0.000
0.000
0.000
0.000
1.000
0.000
0.000
0.000
0.000
0.000
1.000
0.000
0.000
0.000
0.000
0.000
0.000
0.000
0.000
0.000
0.000
0.000
0.000
1.000
0.000
0.000
0.000
0.000
0.000
0.000
0.000
0.000
0.000
0.000
0.000
1.000
0.000
0.000
0.000
0.000
0.000
0.000
0.000
0.000
0.000
0.000
0.000
0.000
0.000
0.000
0.000
0.000
0.000
1.000
0.000
0.000
0.000
0.000
0.000
0.000
0.000
0.000
0.000
0.000
0.000
0.000
0.000
0.000
0.000
0.000
0.000
0.000
0.000
1.000
0.000
0.000
0.000
0.000
0.000
0.000
0.000
0.000
0.000
0.000
0.000
0.000
0.000
0.000
0.000
0.000
0.000
1.000
0.000
0.000
0.000
0.000
0.000
0.000
0.000
0.000
0.000
0.000
0.000
0.000
0.000
0.000
0.000
1.000
0.000
0.000
0.000
0.000
0.000
0.000
0.000
0.000
0.000
0.000
0.000
0.000
0.000
0.000
0.000
0.000
0.000
0.000
0.000
0.000
0.000
0.000
0.000
0.000
0.000
1.000
0.000
0.000
0.000
0.000
0.000
0.000
0.000
0.000
0.000
0.000
0.000
0.000
0.000
0.000
0.000
0.000
0.000
0.000
0.000
0.000
0.000
0.000
0.000
0.000
0.000
0.000
0.000
0.000
0.000
0.000
0.000
0.000
0.000
0.000
0.000
0.000
0.000
0.000
0.000
0.000
0.000
0.000
0.000
#ENDOFDATA   :