File: data/SEM-data_2024/artifact_surfaces/P5-1566_artifact_002_analysis_lw_region/spectrum.emsa
#FORMAT      : EMSA/MAS Spectral Data File
#VERSION     : 1.0
#TITLE       : EDS Spectrum
#DATE        : 19-SEP-2024
#TIME        : 11:20
#OWNER       : Thermo Fisher Scientific Inc.
#NPOINTS     : 2048.
#NCOLUMNS    : 1.
#XUNITS      : eV
#YUNITS      : Counts
#DATATYPE    : Y
#XPERCHAN    : 9.933
#OFFSET      : -44.878
#XLABEL      : Energy
#YLABEL      : Counts
#SIGNALTYPE  : EDS
#BEAMKV      : 15.000
#AZIMANGLE-dg: 0.0
#ELEVANGLE-dg: 28.5
#LIVETIME    : 206.788
#REALTIME    : 244.160
#EDSDET      : SDUTW
##MNFWHM     : 126.3
##INSTRUMENT : MVE075582-10647-L
##SLOWTPEAK  : 0.000004000
##FASTTPEAK  : 0.000000100
##OPTICALWD  : 0.005500000
##WD         : 0.0141185
##SDDAREA    : 0.000025
##CCORR      : 260.454
##SCORR      : LIN
#SPECTRUM    : Spectral Data Starts Here
0.000
0.000
0.000
0.000
0.000
0.000
0.000
163.000
84.000
43.000
45.000
50.000
56.000
101.000
184.000
350.000
466.000
381.000
199.000
158.000
153.000
207.000
224.000
236.000
343.000
897.000
2671.000
6725.000
10517.000
8312.000
3125.000
638.000
144.000
120.000
118.000
132.000
190.000
231.000
195.000
146.000
111.000
88.000
110.000
106.000
112.000
108.000
135.000
101.000
101.000
133.000
168.000
184.000
334.000
609.000
862.000
709.000
437.000
214.000
145.000
143.000
113.000
143.000
155.000
174.000
265.000
306.000
266.000
199.000
152.000
146.000
132.000
141.000
154.000
242.000
543.000
1171.000
1658.000
2004.000
1365.000
769.000
316.000
210.000
187.000
165.000
191.000
346.000
955.000
2700.000
5287.000
7540.000
7166.000
4961.000
2382.000
1029.000
529.000
293.000
214.000
120.000
88.000
66.000
68.000
61.000
76.000
67.000
72.000
58.000
55.000
58.000
78.000
57.000
44.000
66.000
73.000
62.000
51.000
63.000
59.000
68.000
57.000
62.000
56.000
50.000
43.000
61.000
56.000
65.000
52.000
65.000
47.000
66.000
52.000
66.000
60.000
75.000
52.000
53.000
62.000
52.000
54.000
38.000
32.000
39.000
51.000
53.000
51.000
57.000
57.000
60.000
57.000
53.000
59.000
52.000
42.000
48.000
44.000
38.000
59.000
45.000
43.000
45.000
53.000
58.000
54.000
44.000
74.000
79.000
132.000
163.000
219.000
231.000
248.000
182.000
103.000
71.000
51.000
46.000
38.000
48.000
49.000
51.000
50.000
54.000
45.000
84.000
77.000
90.000
99.000
106.000
94.000
100.000
82.000
58.000
51.000
45.000
40.000
44.000
33.000
26.000
28.000
31.000
34.000
36.000
32.000
41.000
53.000
47.000
33.000
37.000
25.000
28.000
29.000
27.000
38.000
41.000
26.000
23.000
21.000
27.000
37.000
32.000
20.000
33.000
44.000
27.000
26.000
37.000
35.000
31.000
48.000
57.000
53.000
41.000
42.000
36.000
22.000
30.000
30.000
22.000
30.000
29.000
30.000
32.000
31.000
22.000
26.000
30.000
29.000
20.000
30.000
25.000
24.000
27.000
29.000
33.000
33.000
21.000
15.000
27.000
23.000
28.000
27.000
23.000
20.000
38.000
20.000
35.000
30.000
25.000
22.000
30.000
24.000
22.000
33.000
19.000
17.000
16.000
23.000
25.000
18.000
29.000
23.000
17.000
26.000
20.000
26.000
17.000
22.000
20.000
19.000
15.000
23.000
22.000
17.000
19.000
17.000
19.000
27.000
22.000
21.000
18.000
32.000
22.000
16.000
17.000
23.000
15.000
14.000
17.000
16.000
19.000
11.000
17.000
19.000
13.000
15.000
17.000
15.000
22.000
22.000
31.000
34.000
52.000
48.000
80.000
84.000
83.000
62.000
56.000
33.000
28.000
25.000
17.000
10.000
20.000
20.000
13.000
8.000
15.000
14.000
18.000
20.000
13.000
14.000
19.000
16.000
8.000
10.000
16.000
14.000
19.000
12.000
18.000
10.000
18.000
21.000
23.000
16.000
19.000
16.000
16.000
19.000
18.000
16.000
11.000
15.000
9.000
13.000
7.000
8.000
10.000
8.000
14.000
12.000
17.000
10.000
8.000
15.000
12.000
11.000
10.000
12.000
11.000
16.000
14.000
13.000
10.000
7.000
11.000
14.000
14.000
12.000
13.000
19.000
16.000
14.000
11.000
15.000
10.000
16.000
10.000
10.000
6.000
9.000
10.000
8.000
14.000
13.000
4.000
6.000
17.000
11.000
5.000
17.000
13.000
13.000
7.000
4.000
13.000
15.000
7.000
5.000
3.000
11.000
7.000
20.000
9.000
12.000
8.000
10.000
11.000
15.000
7.000
13.000
6.000
12.000
8.000
8.000
10.000
5.000
8.000
13.000
12.000
11.000
9.000
4.000
13.000
8.000
7.000
10.000
8.000
4.000
11.000
17.000
6.000
10.000
8.000
7.000
8.000
9.000
8.000
4.000
9.000
14.000
11.000
6.000
8.000
7.000
2.000
9.000
5.000
3.000
7.000
7.000
7.000
5.000
9.000
6.000
6.000
9.000
3.000
6.000
8.000
7.000
3.000
11.000
2.000
8.000
7.000
7.000
6.000
5.000
4.000
2.000
5.000
5.000
7.000
3.000
8.000
5.000
6.000
3.000
6.000
6.000
7.000
7.000
7.000
7.000
9.000
7.000
3.000
6.000
10.000
4.000
5.000
5.000
5.000
5.000
3.000
9.000
5.000
7.000
4.000
9.000
5.000
5.000
6.000
6.000
6.000
4.000
2.000
6.000
7.000
4.000
4.000
8.000
2.000
5.000
6.000
6.000
2.000
2.000
2.000
0.000
5.000
8.000
3.000
5.000
6.000
2.000
8.000
1.000
2.000
6.000
3.000
6.000
8.000
6.000
2.000
1.000
2.000
2.000
3.000
3.000
4.000
7.000
4.000
2.000
2.000
3.000
1.000
3.000
6.000
6.000
2.000
5.000
1.000
6.000
4.000
8.000
1.000
2.000
5.000
2.000
2.000
3.000
4.000
3.000
5.000
2.000
1.000
2.000
2.000
4.000
3.000
3.000
5.000
4.000
3.000
2.000
2.000
6.000
2.000
0.000
3.000
0.000
0.000
1.000
5.000
2.000
3.000
3.000
2.000
4.000
1.000
3.000
2.000
2.000
0.000
2.000
1.000
1.000
1.000
3.000
0.000
1.000
0.000
3.000
1.000
0.000
0.000
4.000
1.000
1.000
0.000
4.000
1.000
1.000
2.000
1.000
0.000
1.000
0.000
2.000
1.000
1.000
0.000
0.000
1.000
0.000
1.000
0.000
0.000
1.000
1.000
3.000
0.000
2.000
1.000
1.000
2.000
0.000
1.000
0.000
2.000
0.000
1.000
2.000
1.000
0.000
0.000
0.000
1.000
2.000
1.000
2.000
2.000
0.000
2.000
0.000
2.000
2.000
1.000
2.000
1.000
1.000
1.000
0.000
0.000
0.000
0.000
0.000
1.000
0.000
0.000
0.000
0.000
0.000
2.000
0.000
0.000
0.000
1.000
0.000
0.000
0.000
0.000
0.000
0.000
0.000
0.000
0.000
1.000
0.000
1.000
0.000
0.000
0.000
0.000
0.000
1.000
0.000
0.000
0.000
0.000
1.000
0.000
0.000
0.000
0.000
0.000
0.000
0.000
0.000
0.000
0.000
0.000
0.000
0.000
0.000
0.000
0.000
0.000
0.000
0.000
0.000
0.000
0.000
0.000
0.000
0.000
0.000
0.000
0.000
0.000
0.000
0.000
0.000
0.000
0.000
0.000
0.000
0.000
0.000
0.000
0.000
0.000
0.000
0.000
0.000
0.000
0.000
0.000
0.000
0.000
0.000
0.000
0.000
0.000
0.000
0.000
0.000
0.000
0.000
0.000
0.000
0.000
0.000
0.000
0.000
0.000
0.000
0.000
0.000
0.000
0.000
0.000
0.000
0.000
0.000
0.000
0.000
0.000
0.000
0.000
0.000
0.000
0.000
0.000
0.000
0.000
0.000
0.000
0.000
0.000
0.000
0.000
0.000
0.000
0.000
0.000
0.000
0.000
0.000
0.000
0.000
0.000
0.000
0.000
0.000
0.000
0.000
0.000
0.000
0.000
0.000
0.000
0.000
0.000
0.000
0.000
0.000
0.000
0.000
0.000
0.000
0.000
0.000
0.000
0.000
0.000
0.000
0.000
0.000
0.000
0.000
0.000
0.000
0.000
0.000
0.000
0.000
0.000
0.000
0.000
0.000
0.000
0.000
0.000
0.000
0.000
0.000
0.000
0.000
0.000
0.000
0.000
0.000
0.000
0.000
0.000
0.000
0.000
0.000
0.000
0.000
0.000
0.000
0.000
0.000
0.000
0.000
0.000
0.000
0.000
0.000
0.000
0.000
0.000
0.000
0.000
0.000
0.000
0.000
0.000
0.000
0.000
0.000
0.000
0.000
0.000
0.000
0.000
0.000
0.000
0.000
0.000
0.000
0.000
0.000
0.000
0.000
0.000
0.000
0.000
0.000
0.000
0.000
0.000
0.000
0.000
0.000
0.000
0.000
0.000
0.000
0.000
0.000
0.000
0.000
0.000
0.000
0.000
0.000
0.000
0.000
0.000
0.000
0.000
0.000
0.000
0.000
0.000
0.000
0.000
0.000
0.000
0.000
0.000
0.000
0.000
0.000
0.000
0.000
0.000
0.000
0.000
0.000
0.000
0.000
0.000
0.000
0.000
0.000
0.000
0.000
0.000
0.000
0.000
0.000
0.000
0.000
0.000
0.000
0.000
0.000
0.000
0.000
0.000
0.000
0.000
0.000
0.000
0.000
0.000
0.000
0.000
0.000
0.000
0.000
0.000
0.000
0.000
0.000
0.000
0.000
0.000
0.000
0.000
0.000
0.000
0.000
0.000
0.000
0.000
0.000
0.000
0.000
0.000
0.000
0.000
0.000
0.000
0.000
0.000
0.000
#ENDOFDATA   :