File: data/SEM-data_2024/artifact_surfaces/P1-336_artifact_mw_analysis_1_region/spectrum.emsa
#FORMAT      : EMSA/MAS Spectral Data File
#VERSION     : 1.0
#TITLE       : EDS Spectrum
#DATE        : 19-SEP-2024
#TIME        : 11:20
#OWNER       : Thermo Fisher Scientific Inc.
#NPOINTS     : 2048.
#NCOLUMNS    : 1.
#XUNITS      : eV
#YUNITS      : Counts
#DATATYPE    : Y
#XPERCHAN    : 9.933
#OFFSET      : -44.878
#XLABEL      : Energy
#YLABEL      : Counts
#SIGNALTYPE  : EDS
#BEAMKV      : 15.000
#AZIMANGLE-dg: 0.0
#ELEVANGLE-dg: 28.5
#LIVETIME    : 206.859
#REALTIME    : 245.760
#EDSDET      : SDUTW
##MNFWHM     : 126.3
##INSTRUMENT : MVE075582-10647-L
##SLOWTPEAK  : 0.000004000
##FASTTPEAK  : 0.000000100
##OPTICALWD  : 0.005500000
##WD         : 0.006450533
##SDDAREA    : 0.000025
##CCORR      : 260.454
##SCORR      : LIN
#SPECTRUM    : Spectral Data Starts Here
0.000
0.000
0.000
0.000
0.000
0.000
0.000
90.000
37.000
21.000
25.000
27.000
39.000
58.000
143.000
319.000
456.000
317.000
125.000
67.000
91.000
130.000
125.000
135.000
165.000
413.000
1235.000
3248.000
5012.000
4041.000
1511.000
317.000
92.000
70.000
83.000
90.000
137.000
168.000
166.000
117.000
65.000
54.000
50.000
56.000
55.000
74.000
60.000
52.000
50.000
57.000
70.000
105.000
181.000
377.000
472.000
453.000
222.000
117.000
91.000
73.000
77.000
85.000
87.000
103.000
157.000
155.000
134.000
106.000
115.000
98.000
112.000
122.000
152.000
179.000
400.000
801.000
1241.000
1247.000
924.000
535.000
280.000
226.000
156.000
146.000
203.000
374.000
1045.000
2945.000
6198.000
8915.000
8697.000
5869.000
2845.000
1281.000
636.000
377.000
260.000
123.000
82.000
75.000
63.000
96.000
92.000
112.000
81.000
77.000
65.000
67.000
69.000
74.000
67.000
56.000
58.000
75.000
66.000
72.000
94.000
78.000
82.000
85.000
70.000
70.000
76.000
75.000
80.000
62.000
61.000
68.000
73.000
78.000
74.000
74.000
98.000
107.000
112.000
92.000
113.000
101.000
74.000
65.000
83.000
70.000
66.000
82.000
84.000
66.000
71.000
69.000
61.000
60.000
81.000
83.000
74.000
78.000
78.000
76.000
75.000
62.000
76.000
70.000
78.000
80.000
90.000
79.000
90.000
116.000
97.000
148.000
152.000
162.000
140.000
131.000
112.000
99.000
86.000
80.000
70.000
85.000
75.000
85.000
89.000
91.000
83.000
98.000
103.000
120.000
133.000
143.000
143.000
145.000
112.000
121.000
75.000
83.000
69.000
86.000
63.000
73.000
83.000
77.000
72.000
79.000
80.000
62.000
79.000
78.000
76.000
90.000
58.000
81.000
81.000
76.000
67.000
71.000
81.000
70.000
75.000
70.000
58.000
65.000
71.000
65.000
65.000
86.000
84.000
85.000
102.000
105.000
130.000
132.000
121.000
100.000
107.000
65.000
78.000
86.000
79.000
92.000
86.000
65.000
76.000
67.000
73.000
63.000
67.000
79.000
70.000
62.000
87.000
74.000
81.000
99.000
72.000
70.000
79.000
95.000
65.000
63.000
61.000
66.000
64.000
47.000
51.000
67.000
79.000
66.000
59.000
71.000
60.000
73.000
66.000
70.000
56.000
51.000
59.000
68.000
69.000
53.000
76.000
81.000
62.000
74.000
57.000
55.000
56.000
48.000
62.000
64.000
58.000
66.000
62.000
60.000
63.000
49.000
56.000
73.000
65.000
79.000
71.000
68.000
70.000
49.000
73.000
60.000
57.000
52.000
71.000
54.000
54.000
75.000
57.000
50.000
62.000
61.000
54.000
59.000
71.000
72.000
110.000
134.000
216.000
288.000
432.000
508.000
551.000
542.000
457.000
316.000
266.000
154.000
111.000
61.000
65.000
48.000
55.000
54.000
55.000
60.000
49.000
56.000
53.000
48.000
54.000
46.000
49.000
45.000
49.000
59.000
47.000
58.000
53.000
69.000
62.000
78.000
89.000
98.000
115.000
109.000
117.000
88.000
89.000
79.000
62.000
48.000
64.000
39.000
45.000
44.000
50.000
43.000
47.000
32.000
44.000
49.000
43.000
49.000
37.000
40.000
36.000
31.000
27.000
31.000
50.000
38.000
34.000
34.000
40.000
52.000
34.000
40.000
40.000
38.000
56.000
45.000
36.000
37.000
40.000
38.000
40.000
45.000
29.000
47.000
37.000
37.000
25.000
41.000
42.000
31.000
38.000
31.000
32.000
39.000
39.000
36.000
36.000
40.000
40.000
41.000
26.000
39.000
36.000
24.000
51.000
39.000
40.000
29.000
25.000
43.000
28.000
38.000
31.000
33.000
37.000
35.000
38.000
26.000
44.000
29.000
39.000
29.000
32.000
37.000
40.000
30.000
38.000
43.000
35.000
31.000
32.000
36.000
30.000
37.000
27.000
30.000
23.000
16.000
30.000
42.000
31.000
27.000
29.000
25.000
41.000
32.000
36.000
36.000
38.000
25.000
24.000
31.000
32.000
24.000
33.000
33.000
25.000
32.000
37.000
31.000
26.000
23.000
28.000
32.000
18.000
32.000
33.000
25.000
30.000
26.000
30.000
32.000
22.000
16.000
32.000
34.000
27.000
20.000
33.000
22.000
29.000
22.000
22.000
27.000
21.000
29.000
27.000
16.000
25.000
32.000
29.000
16.000
25.000
27.000
24.000
28.000
32.000
21.000
21.000
26.000
17.000
20.000
25.000
23.000
22.000
24.000
34.000
27.000
24.000
27.000
17.000
29.000
22.000
29.000
20.000
20.000
23.000
30.000
14.000
15.000
15.000
20.000
19.000
20.000
17.000
24.000
20.000
13.000
15.000
15.000
18.000
19.000
16.000
17.000
20.000
15.000
19.000
22.000
14.000
24.000
22.000
22.000
14.000
20.000
9.000
22.000
22.000
18.000
27.000
14.000
22.000
14.000
13.000
20.000
14.000
14.000
10.000
12.000
18.000
13.000
21.000
14.000
15.000
12.000
15.000
15.000
15.000
20.000
11.000
12.000
9.000
17.000
22.000
6.000
25.000
12.000
16.000
15.000
8.000
14.000
5.000
14.000
20.000
14.000
9.000
20.000
15.000
10.000
18.000
15.000
5.000
13.000
12.000
14.000
16.000
16.000
15.000
13.000
13.000
9.000
13.000
11.000
8.000
9.000
16.000
12.000
16.000
12.000
9.000
11.000
8.000
10.000
9.000
12.000
12.000
14.000
14.000
11.000
10.000
9.000
10.000
8.000
13.000
11.000
11.000
11.000
11.000
7.000
10.000
7.000
11.000
10.000
12.000
8.000
9.000
6.000
9.000
8.000
9.000
6.000
5.000
10.000
6.000
5.000
4.000
7.000
7.000
10.000
12.000
7.000
6.000
7.000
3.000
16.000
3.000
8.000
10.000
5.000
6.000
9.000
5.000
6.000
11.000
6.000
1.000
5.000
5.000
6.000
1.000
6.000
2.000
4.000
5.000
4.000
5.000
3.000
3.000
4.000
2.000
5.000
7.000
5.000
2.000
4.000
5.000
2.000
2.000
2.000
2.000
3.000
4.000
2.000
2.000
3.000
1.000
2.000
4.000
3.000
5.000
3.000
1.000
2.000
6.000
0.000
2.000
1.000
1.000
2.000
2.000
2.000
0.000
4.000
1.000
0.000
1.000
1.000
1.000
2.000
3.000
3.000
1.000
2.000
0.000
0.000
1.000
0.000
0.000
1.000
0.000
0.000
0.000
0.000
1.000
0.000
0.000
1.000
0.000
0.000
0.000
0.000
0.000
0.000
0.000
0.000
0.000
0.000
0.000
0.000
0.000
0.000
0.000
0.000
0.000
0.000
0.000
0.000
0.000
0.000
0.000
0.000
0.000
0.000
0.000
0.000
0.000
0.000
0.000
0.000
0.000
0.000
0.000
0.000
0.000
0.000
0.000
0.000
0.000
0.000
0.000
0.000
0.000
0.000
0.000
0.000
0.000
0.000
0.000
0.000
0.000
0.000
0.000
0.000
0.000
0.000
0.000
0.000
0.000
0.000
0.000
0.000
0.000
0.000
0.000
0.000
0.000
0.000
0.000
0.000
0.000
0.000
0.000
0.000
0.000
0.000
0.000
0.000
0.000
0.000
0.000
0.000
0.000
0.000
0.000
0.000
0.000
0.000
0.000
0.000
0.000
0.000
0.000
0.000
0.000
0.000
0.000
0.000
0.000
0.000
0.000
0.000
0.000
0.000
0.000
0.000
0.000
0.000
0.000
0.000
0.000
0.000
0.000
0.000
0.000
0.000
0.000
0.000
1.000
0.000
0.000
0.000
0.000
0.000
0.000
0.000
0.000
0.000
0.000
0.000
0.000
0.000
0.000
0.000
0.000
0.000
0.000
0.000
0.000
0.000
0.000
0.000
0.000
0.000
0.000
0.000
0.000
0.000
0.000
0.000
0.000
0.000
0.000
0.000
0.000
0.000
0.000
0.000
0.000
0.000
0.000
0.000
0.000
0.000
0.000
0.000
0.000
0.000
0.000
0.000
0.000
0.000
0.000
0.000
0.000
0.000
0.000
0.000
0.000
0.000
0.000
0.000
0.000
0.000
0.000
0.000
0.000
0.000
0.000
0.000
0.000
0.000
0.000
0.000
0.000
0.000
0.000
0.000
0.000
0.000
0.000
0.000
0.000
0.000
0.000
0.000
0.000
0.000
0.000
0.000
0.000
0.000
0.000
0.000
0.000
0.000
0.000
0.000
0.000
0.000
0.000
0.000
0.000
0.000
0.000
0.000
0.000
0.000
0.000
0.000
0.000
0.000
0.000
0.000
0.000
0.000
0.000
0.000
0.000
0.000
0.000
0.000
0.000
0.000
0.000
0.000
0.000
0.000
0.000
0.000
0.000
0.000
0.000
0.000
0.000
0.000
0.000
0.000
0.000
0.000
0.000
0.000
0.000
0.000
0.000
0.000
0.000
0.000
0.000
#ENDOFDATA   :