File: data/SEM-data_2024/artifact_surfaces/P5-1843_artifact_002_analysis_lw_region/spectrum.emsa
#FORMAT      : EMSA/MAS Spectral Data File
#VERSION     : 1.0
#TITLE       : EDS Spectrum
#DATE        : 19-SEP-2024
#TIME        : 11:20
#OWNER       : Thermo Fisher Scientific Inc.
#NPOINTS     : 2048.
#NCOLUMNS    : 1.
#XUNITS      : eV
#YUNITS      : Counts
#DATATYPE    : Y
#XPERCHAN    : 9.933
#OFFSET      : -44.878
#XLABEL      : Energy
#YLABEL      : Counts
#SIGNALTYPE  : EDS
#BEAMKV      : 15.000
#AZIMANGLE-dg: 0.0
#ELEVANGLE-dg: 28.5
#LIVETIME    : 40.805
#REALTIME    : 49.761
#EDSDET      : SDUTW
##MNFWHM     : 126.3
##INSTRUMENT : MVE075582-10647-L
##SLOWTPEAK  : 0.000004000
##FASTTPEAK  : 0.000000100
##OPTICALWD  : 0.005500000
##WD         : 0.0104517
##SDDAREA    : 0.000025
##CCORR      : 260.454
##SCORR      : LIN
#SPECTRUM    : Spectral Data Starts Here
0.000
0.000
0.000
0.000
0.000
0.000
0.000
92.000
75.000
66.000
39.000
59.000
72.000
164.000
329.000
703.000
937.000
628.000
245.000
173.000
182.000
264.000
296.000
297.000
395.000
964.000
2885.000
7274.000
11202.000
8751.000
3350.000
663.000
178.000
145.000
166.000
181.000
272.000
321.000
292.000
210.000
133.000
136.000
104.000
107.000
125.000
130.000
138.000
130.000
142.000
146.000
141.000
211.000
332.000
605.000
748.000
685.000
410.000
197.000
140.000
155.000
124.000
171.000
164.000
279.000
343.000
448.000
395.000
234.000
166.000
145.000
141.000
164.000
178.000
232.000
565.000
1090.000
1740.000
1890.000
1319.000
693.000
365.000
230.000
172.000
177.000
184.000
296.000
840.000
2320.000
4688.000
6741.000
6337.000
4300.000
2142.000
941.000
477.000
314.000
220.000
119.000
94.000
82.000
69.000
84.000
81.000
72.000
82.000
71.000
62.000
56.000
71.000
62.000
63.000
64.000
73.000
75.000
64.000
64.000
78.000
58.000
82.000
82.000
76.000
53.000
47.000
64.000
52.000
59.000
51.000
71.000
39.000
65.000
53.000
58.000
58.000
71.000
64.000
67.000
61.000
46.000
54.000
50.000
51.000
63.000
53.000
57.000
65.000
58.000
41.000
48.000
49.000
46.000
49.000
41.000
44.000
51.000
54.000
41.000
44.000
37.000
49.000
48.000
49.000
42.000
47.000
60.000
49.000
81.000
91.000
156.000
181.000
178.000
172.000
128.000
96.000
63.000
47.000
46.000
40.000
33.000
38.000
42.000
48.000
54.000
69.000
54.000
64.000
66.000
89.000
63.000
71.000
75.000
58.000
44.000
56.000
32.000
36.000
32.000
34.000
33.000
35.000
30.000
28.000
33.000
29.000
31.000
42.000
26.000
31.000
38.000
31.000
35.000
23.000
29.000
39.000
25.000
28.000
31.000
25.000
20.000
29.000
31.000
28.000
23.000
29.000
20.000
29.000
38.000
31.000
33.000
46.000
35.000
43.000
43.000
31.000
29.000
29.000
36.000
27.000
25.000
31.000
21.000
27.000
30.000
25.000
26.000
28.000
21.000
20.000
24.000
22.000
30.000
29.000
23.000
24.000
28.000
21.000
34.000
24.000
24.000
42.000
22.000
17.000
34.000
17.000
34.000
19.000
32.000
23.000
23.000
16.000
26.000
11.000
20.000
15.000
27.000
22.000
23.000
19.000
16.000
29.000
12.000
26.000
16.000
26.000
18.000
20.000
16.000
19.000
26.000
19.000
21.000
22.000
18.000
16.000
19.000
14.000
22.000
22.000
30.000
11.000
15.000
22.000
20.000
18.000
16.000
14.000
10.000
20.000
21.000
15.000
20.000
18.000
17.000
21.000
17.000
19.000
14.000
16.000
18.000
31.000
27.000
52.000
44.000
63.000
82.000
88.000
82.000
64.000
53.000
49.000
35.000
29.000
19.000
16.000
10.000
14.000
19.000
14.000
14.000
14.000
14.000
14.000
12.000
18.000
11.000
15.000
18.000
14.000
10.000
16.000
20.000
17.000
16.000
20.000
25.000
20.000
19.000
25.000
24.000
17.000
23.000
12.000
12.000
12.000
11.000
8.000
13.000
9.000
11.000
11.000
10.000
8.000
10.000
11.000
8.000
12.000
18.000
9.000
11.000
14.000
11.000
11.000
15.000
10.000
5.000
9.000
5.000
8.000
14.000
12.000
9.000
16.000
11.000
9.000
13.000
8.000
5.000
17.000
11.000
11.000
11.000
10.000
8.000
6.000
5.000
15.000
16.000
14.000
13.000
9.000
9.000
7.000
13.000
11.000
11.000
3.000
9.000
11.000
6.000
11.000
14.000
6.000
8.000
10.000
9.000
7.000
10.000
12.000
8.000
6.000
14.000
8.000
10.000
5.000
8.000
10.000
6.000
14.000
9.000
17.000
11.000
11.000
8.000
6.000
7.000
9.000
4.000
9.000
8.000
7.000
6.000
7.000
6.000
10.000
7.000
11.000
7.000
10.000
6.000
6.000
7.000
3.000
8.000
5.000
6.000
8.000
5.000
9.000
9.000
5.000
8.000
1.000
5.000
8.000
5.000
11.000
3.000
4.000
5.000
2.000
7.000
8.000
9.000
5.000
8.000
8.000
6.000
3.000
2.000
5.000
5.000
4.000
5.000
7.000
8.000
7.000
5.000
6.000
8.000
7.000
6.000
8.000
11.000
9.000
3.000
2.000
6.000
5.000
6.000
4.000
7.000
7.000
4.000
8.000
4.000
1.000
5.000
9.000
3.000
7.000
2.000
6.000
3.000
8.000
4.000
3.000
4.000
1.000
2.000
7.000
4.000
4.000
3.000
3.000
6.000
4.000
9.000
3.000
3.000
3.000
1.000
2.000
2.000
4.000
1.000
1.000
2.000
3.000
5.000
2.000
5.000
3.000
3.000
4.000
6.000
2.000
7.000
4.000
0.000
1.000
1.000
2.000
1.000
3.000
0.000
1.000
2.000
3.000
4.000
5.000
2.000
2.000
2.000
1.000
3.000
1.000
2.000
2.000
2.000
1.000
5.000
6.000
2.000
2.000
4.000
3.000
0.000
1.000
2.000
1.000
1.000
3.000
2.000
7.000
1.000
3.000
3.000
3.000
1.000
2.000
1.000
1.000
2.000
1.000
4.000
1.000
4.000
2.000
1.000
2.000
1.000
2.000
2.000
3.000
0.000
2.000
5.000
0.000
4.000
1.000
4.000
0.000
1.000
1.000
3.000
1.000
1.000
0.000
0.000
0.000
2.000
1.000
1.000
5.000
3.000
4.000
1.000
3.000
1.000
0.000
0.000
2.000
1.000
1.000
1.000
2.000
0.000
3.000
1.000
1.000
2.000
0.000
5.000
0.000
2.000
0.000
0.000
1.000
0.000
1.000
3.000
0.000
1.000
0.000
0.000
0.000
1.000
1.000
0.000
1.000
0.000
0.000
1.000
1.000
0.000
1.000
0.000
0.000
1.000
0.000
0.000
0.000
1.000
0.000
3.000
2.000
2.000
0.000
1.000
0.000
0.000
0.000
1.000
0.000
0.000
0.000
0.000
1.000
1.000
0.000
0.000
0.000
0.000
1.000
1.000
1.000
0.000
0.000
0.000
0.000
0.000
0.000
0.000
0.000
0.000
0.000
0.000
0.000
0.000
0.000
0.000
1.000
0.000
1.000
0.000
1.000
1.000
1.000
0.000
1.000
0.000
0.000
0.000
0.000
0.000
0.000
0.000
0.000
0.000
0.000
0.000
0.000
0.000
0.000
0.000
0.000
0.000
0.000
0.000
0.000
0.000
0.000
0.000
0.000
0.000
0.000
0.000
0.000
0.000
0.000
0.000
0.000
0.000
0.000
0.000
0.000
0.000
0.000
0.000
0.000
0.000
0.000
0.000
0.000
0.000
0.000
0.000
0.000
0.000
0.000
0.000
0.000
0.000
0.000
0.000
0.000
0.000
0.000
0.000
0.000
0.000
0.000
0.000
0.000
0.000
0.000
0.000
0.000
0.000
0.000
0.000
0.000
0.000
0.000
0.000
0.000
0.000
0.000
0.000
0.000
0.000
0.000
0.000
0.000
0.000
0.000
0.000
0.000
0.000
0.000
0.000
0.000
0.000
0.000
0.000
0.000
0.000
0.000
0.000
0.000
0.000
0.000
0.000
0.000
0.000
0.000
0.000
0.000
0.000
0.000
0.000
0.000
0.000
0.000
0.000
0.000
0.000
0.000
0.000
0.000
0.000
0.000
0.000
0.000
0.000
0.000
0.000
0.000
0.000
0.000
0.000
0.000
0.000
0.000
0.000
0.000
0.000
0.000
0.000
0.000
0.000
0.000
0.000
0.000
0.000
0.000
0.000
0.000
0.000
0.000
0.000
0.000
0.000
0.000
0.000
0.000
0.000
0.000
0.000
0.000
0.000
0.000
0.000
0.000
0.000
0.000
0.000
0.000
0.000
0.000
0.000
0.000
0.000
0.000
0.000
0.000
0.000
0.000
0.000
0.000
0.000
0.000
0.000
0.000
0.000
0.000
0.000
0.000
0.000
0.000
0.000
0.000
0.000
0.000
0.000
0.000
0.000
0.000
0.000
0.000
0.000
0.000
0.000
0.000
0.000
0.000
0.000
0.000
0.000
0.000
0.000
0.000
0.000
0.000
0.000
0.000
0.000
0.000
0.000
0.000
0.000
0.000
0.000
0.000
0.000
0.000
0.000
0.000
0.000
0.000
0.000
0.000
0.000
0.000
0.000
0.000
0.000
0.000
0.000
0.000
0.000
0.000
0.000
0.000
0.000
0.000
0.000
0.000
0.000
0.000
0.000
0.000
0.000
0.000
0.000
0.000
0.000
0.000
0.000
0.000
0.000
0.000
0.000
0.000
0.000
0.000
0.000
0.000
0.000
0.000
0.000
0.000
0.000
0.000
0.000
0.000
0.000
0.000
0.000
0.000
0.000
0.000
0.000
0.000
0.000
0.000
0.000
0.000
0.000
0.000
0.000
0.000
0.000
0.000
0.000
0.000
#ENDOFDATA   :