File: data/SEM-data_2024/artifact_surfaces/Sem-survey_artifact_001_analysis_mw_region/spectrum.emsa
#FORMAT      : EMSA/MAS Spectral Data File
#VERSION     : 1.0
#TITLE       : EDS Spectrum
#DATE        : 19-SEP-2024
#TIME        : 11:20
#OWNER       : Thermo Fisher Scientific Inc.
#NPOINTS     : 2048.
#NCOLUMNS    : 1.
#XUNITS      : eV
#YUNITS      : Counts
#DATATYPE    : Y
#XPERCHAN    : 9.933
#OFFSET      : -44.878
#XLABEL      : Energy
#YLABEL      : Counts
#SIGNALTYPE  : EDS
#BEAMKV      : 15.000
#AZIMANGLE-dg: 0.0
#ELEVANGLE-dg: 28.5
#LIVETIME    : 137.346
#REALTIME    : 163.561
#EDSDET      : SDUTW
##MNFWHM     : 126.3
##INSTRUMENT : MVE075582-10647-L
##SLOWTPEAK  : 0.000004000
##FASTTPEAK  : 0.000000100
##OPTICALWD  : 0.005500000
##WD         : 0.0141758
##SDDAREA    : 0.000025
##CCORR      : 260.454
##SCORR      : LIN
#SPECTRUM    : Spectral Data Starts Here
0.000
0.000
0.000
0.000
0.000
0.000
0.000
97.000
42.000
42.000
38.000
43.000
45.000
73.000
164.000
307.000
438.000
314.000
159.000
109.000
170.000
215.000
276.000
251.000
307.000
731.000
2170.000
5759.000
8762.000
7074.000
2754.000
536.000
182.000
177.000
164.000
226.000
344.000
449.000
425.000
263.000
141.000
113.000
114.000
112.000
94.000
102.000
93.000
103.000
106.000
110.000
130.000
147.000
238.000
434.000
572.000
489.000
320.000
185.000
131.000
137.000
124.000
109.000
154.000
192.000
301.000
349.000
310.000
181.000
150.000
144.000
139.000
154.000
190.000
238.000
542.000
1106.000
1726.000
1826.000
1341.000
739.000
351.000
228.000
193.000
160.000
207.000
334.000
897.000
2422.000
4980.000
6950.000
6875.000
4522.000
2312.000
1026.000
505.000
375.000
211.000
138.000
97.000
105.000
108.000
131.000
125.000
163.000
158.000
115.000
91.000
66.000
82.000
95.000
73.000
67.000
74.000
76.000
92.000
68.000
76.000
80.000
104.000
109.000
92.000
90.000
83.000
74.000
97.000
101.000
73.000
66.000
78.000
83.000
78.000
68.000
89.000
94.000
91.000
112.000
92.000
73.000
76.000
70.000
87.000
76.000
71.000
60.000
76.000
70.000
72.000
62.000
73.000
88.000
64.000
74.000
64.000
62.000
61.000
61.000
74.000
49.000
68.000
58.000
77.000
75.000
69.000
56.000
82.000
105.000
141.000
171.000
249.000
255.000
254.000
155.000
129.000
81.000
65.000
65.000
52.000
48.000
68.000
61.000
73.000
76.000
93.000
88.000
82.000
98.000
121.000
162.000
140.000
123.000
93.000
81.000
66.000
57.000
55.000
44.000
49.000
49.000
57.000
60.000
53.000
51.000
53.000
45.000
66.000
65.000
45.000
55.000
43.000
62.000
46.000
39.000
41.000
32.000
38.000
31.000
48.000
38.000
40.000
42.000
40.000
54.000
38.000
45.000
50.000
36.000
61.000
64.000
79.000
70.000
71.000
64.000
55.000
40.000
51.000
45.000
38.000
49.000
36.000
35.000
35.000
50.000
30.000
35.000
43.000
40.000
39.000
33.000
50.000
32.000
55.000
43.000
32.000
38.000
42.000
39.000
36.000
41.000
41.000
41.000
34.000
24.000
33.000
32.000
35.000
32.000
43.000
35.000
31.000
29.000
41.000
35.000
20.000
27.000
35.000
33.000
24.000
30.000
30.000
42.000
32.000
29.000
35.000
44.000
27.000
26.000
28.000
35.000
32.000
22.000
41.000
23.000
28.000
32.000
34.000
28.000
35.000
35.000
50.000
49.000
33.000
34.000
40.000
42.000
27.000
26.000
26.000
29.000
29.000
20.000
28.000
23.000
23.000
27.000
31.000
26.000
42.000
47.000
51.000
88.000
131.000
227.000
300.000
347.000
380.000
385.000
326.000
237.000
151.000
101.000
64.000
46.000
31.000
30.000
22.000
28.000
24.000
21.000
19.000
23.000
22.000
23.000
21.000
21.000
20.000
25.000
27.000
20.000
26.000
25.000
26.000
28.000
47.000
36.000
39.000
56.000
69.000
58.000
71.000
71.000
47.000
50.000
31.000
26.000
14.000
17.000
26.000
17.000
21.000
26.000
12.000
19.000
25.000
27.000
12.000
13.000
27.000
19.000
17.000
32.000
17.000
17.000
19.000
14.000
13.000
21.000
14.000
13.000
18.000
18.000
13.000
21.000
17.000
15.000
17.000
12.000
14.000
13.000
13.000
22.000
15.000
11.000
14.000
10.000
18.000
15.000
15.000
11.000
6.000
18.000
16.000
14.000
11.000
20.000
16.000
10.000
5.000
10.000
7.000
12.000
20.000
13.000
16.000
10.000
20.000
12.000
9.000
14.000
9.000
8.000
14.000
7.000
13.000
17.000
20.000
8.000
14.000
13.000
11.000
14.000
11.000
16.000
14.000
14.000
13.000
12.000
15.000
8.000
10.000
17.000
18.000
11.000
9.000
7.000
8.000
12.000
8.000
11.000
8.000
10.000
9.000
13.000
10.000
7.000
11.000
12.000
8.000
12.000
11.000
6.000
13.000
13.000
4.000
19.000
9.000
15.000
10.000
12.000
8.000
10.000
10.000
8.000
11.000
13.000
10.000
7.000
10.000
4.000
8.000
8.000
9.000
12.000
4.000
12.000
8.000
11.000
10.000
5.000
11.000
6.000
11.000
7.000
14.000
12.000
6.000
13.000
7.000
7.000
8.000
4.000
9.000
9.000
8.000
6.000
8.000
9.000
6.000
6.000
5.000
6.000
4.000
5.000
8.000
9.000
7.000
8.000
3.000
9.000
6.000
6.000
10.000
8.000
4.000
5.000
3.000
8.000
6.000
8.000
6.000
5.000
7.000
6.000
5.000
3.000
7.000
2.000
7.000
2.000
7.000
4.000
6.000
6.000
7.000
6.000
5.000
1.000
8.000
4.000
4.000
4.000
6.000
5.000
6.000
6.000
3.000
4.000
5.000
6.000
2.000
9.000
4.000
6.000
7.000
4.000
4.000
2.000
6.000
5.000
2.000
7.000
6.000
3.000
6.000
6.000
3.000
2.000
7.000
1.000
2.000
6.000
7.000
3.000
3.000
5.000
4.000
2.000
1.000
5.000
5.000
7.000
4.000
4.000
0.000
1.000
3.000
6.000
6.000
2.000
5.000
2.000
4.000
5.000
6.000
2.000
3.000
2.000
3.000
5.000
2.000
6.000
3.000
2.000
2.000
4.000
1.000
3.000
1.000
2.000
3.000
6.000
1.000
2.000
4.000
1.000
2.000
2.000
2.000
2.000
3.000
1.000
5.000
1.000
1.000
3.000
3.000
0.000
4.000
1.000
1.000
4.000
2.000
1.000
2.000
5.000
1.000
2.000
6.000
1.000
2.000
0.000
0.000
0.000
2.000
1.000
3.000
0.000
1.000
0.000
0.000
1.000
2.000
1.000
3.000
1.000
0.000
1.000
2.000
5.000
1.000
2.000
2.000
1.000
2.000
2.000
0.000
0.000
0.000
3.000
4.000
0.000
1.000
2.000
1.000
2.000
0.000
2.000
1.000
2.000
3.000
0.000
3.000
2.000
0.000
1.000
1.000
1.000
0.000
1.000
0.000
0.000
0.000
1.000
0.000
2.000
0.000
0.000
0.000
0.000
0.000
1.000
1.000
1.000
0.000
1.000
0.000
1.000
0.000
1.000
0.000
0.000
0.000
0.000
2.000
0.000
0.000
1.000
0.000
0.000
1.000
0.000
1.000
0.000
0.000
0.000
0.000
0.000
0.000
0.000
0.000
0.000
0.000
0.000
0.000
0.000
0.000
0.000
0.000
0.000
0.000
0.000
0.000
0.000
0.000
0.000
0.000
0.000
0.000
0.000
0.000
0.000
0.000
0.000
0.000
0.000
0.000
0.000
0.000
0.000
0.000
0.000
0.000
0.000
0.000
0.000
0.000
0.000
0.000
0.000
0.000
0.000
0.000
0.000
0.000
0.000
0.000
0.000
0.000
0.000
0.000
0.000
0.000
0.000
0.000
0.000
0.000
0.000
0.000
0.000
0.000
0.000
0.000
0.000
0.000
0.000
0.000
0.000
0.000
0.000
0.000
0.000
0.000
0.000
0.000
0.000
0.000
0.000
0.000
0.000
0.000
0.000
0.000
0.000
0.000
0.000
0.000
0.000
0.000
0.000
0.000
0.000
0.000
0.000
0.000
0.000
0.000
0.000
0.000
0.000
0.000
0.000
0.000
0.000
0.000
0.000
0.000
0.000
0.000
0.000
0.000
0.000
0.000
0.000
0.000
0.000
0.000
0.000
0.000
0.000
0.000
0.000
0.000
0.000
0.000
0.000
0.000
0.000
0.000
0.000
0.000
0.000
0.000
0.000
0.000
0.000
0.000
0.000
0.000
0.000
0.000
0.000
0.000
0.000
0.000
0.000
0.000
0.000
0.000
0.000
0.000
0.000
0.000
0.000
0.000
0.000
0.000
0.000
0.000
0.000
0.000
0.000
0.000
0.000
0.000
0.000
0.000
0.000
0.000
0.000
0.000
0.000
0.000
0.000
0.000
0.000
0.000
0.000
0.000
0.000
0.000
0.000
0.000
0.000
0.000
0.000
0.000
0.000
0.000
0.000
0.000
0.000
0.000
0.000
0.000
0.000
0.000
0.000
0.000
0.000
0.000
0.000
0.000
0.000
0.000
0.000
0.000
0.000
0.000
0.000
0.000
0.000
0.000
0.000
0.000
0.000
0.000
0.000
0.000
0.000
0.000
0.000
0.000
0.000
0.000
0.000
0.000
0.000
0.000
0.000
0.000
0.000
0.000
0.000
0.000
0.000
0.000
0.000
0.000
0.000
0.000
0.000
0.000
0.000
0.000
0.000
0.000
0.000
0.000
0.000
0.000
0.000
0.000
0.000
0.000
0.000
0.000
0.000
0.000
0.000
0.000
0.000
0.000
0.000
0.000
0.000
0.000
0.000
0.000
0.000
0.000
0.000
0.000
0.000
0.000
0.000
0.000
#ENDOFDATA   :