File: data/SEM-data_2024/artifact_surfaces/P5-1566_artifact_001_analysis_mw_region/spectrum.emsa
#FORMAT      : EMSA/MAS Spectral Data File
#VERSION     : 1.0
#TITLE       : EDS Spectrum
#DATE        : 19-SEP-2024
#TIME        : 11:20
#OWNER       : Thermo Fisher Scientific Inc.
#NPOINTS     : 2048.
#NCOLUMNS    : 1.
#XUNITS      : eV
#YUNITS      : Counts
#DATATYPE    : Y
#XPERCHAN    : 9.933
#OFFSET      : -44.878
#XLABEL      : Energy
#YLABEL      : Counts
#SIGNALTYPE  : EDS
#BEAMKV      : 15.000
#AZIMANGLE-dg: 0.0
#ELEVANGLE-dg: 28.5
#LIVETIME    : 51.794
#REALTIME    : 62.561
#EDSDET      : SDUTW
##MNFWHM     : 126.3
##INSTRUMENT : MVE075582-10647-L
##SLOWTPEAK  : 0.000004000
##FASTTPEAK  : 0.000000100
##OPTICALWD  : 0.005500000
##WD         : 0.0112519
##SDDAREA    : 0.000025
##CCORR      : 260.454
##SCORR      : LIN
#SPECTRUM    : Spectral Data Starts Here
0.000
0.000
0.000
0.000
0.000
0.000
0.000
82.000
65.000
55.000
43.000
58.000
66.000
127.000
279.000
627.000
927.000
689.000
253.000
142.000
147.000
185.000
224.000
231.000
342.000
769.000
2317.000
6082.000
9264.000
7372.000
2771.000
549.000
193.000
170.000
163.000
202.000
312.000
437.000
393.000
239.000
136.000
97.000
132.000
112.000
99.000
97.000
110.000
110.000
115.000
117.000
135.000
161.000
259.000
533.000
711.000
618.000
372.000
188.000
135.000
120.000
128.000
142.000
145.000
192.000
229.000
299.000
263.000
193.000
155.000
158.000
132.000
143.000
173.000
271.000
550.000
1128.000
1638.000
1816.000
1321.000
708.000
374.000
257.000
178.000
170.000
196.000
359.000
960.000
2595.000
5023.000
7277.000
7007.000
4722.000
2296.000
992.000
496.000
350.000
235.000
113.000
87.000
82.000
77.000
74.000
106.000
111.000
118.000
89.000
103.000
71.000
90.000
63.000
63.000
68.000
60.000
72.000
95.000
80.000
90.000
105.000
113.000
105.000
87.000
90.000
77.000
78.000
61.000
70.000
65.000
64.000
64.000
66.000
78.000
80.000
91.000
88.000
79.000
75.000
72.000
53.000
64.000
48.000
68.000
64.000
57.000
60.000
60.000
75.000
67.000
60.000
60.000
60.000
72.000
60.000
72.000
54.000
60.000
53.000
56.000
53.000
61.000
49.000
59.000
54.000
76.000
48.000
70.000
102.000
143.000
240.000
253.000
274.000
218.000
175.000
105.000
64.000
66.000
52.000
52.000
46.000
53.000
53.000
58.000
72.000
73.000
66.000
71.000
78.000
112.000
108.000
107.000
83.000
76.000
84.000
38.000
40.000
50.000
49.000
47.000
42.000
43.000
38.000
43.000
50.000
48.000
60.000
47.000
48.000
37.000
50.000
37.000
36.000
44.000
40.000
38.000
35.000
38.000
44.000
41.000
36.000
32.000
39.000
37.000
52.000
36.000
44.000
33.000
61.000
50.000
62.000
77.000
85.000
94.000
69.000
50.000
42.000
40.000
20.000
31.000
42.000
29.000
30.000
34.000
33.000
37.000
34.000
29.000
31.000
26.000
31.000
28.000
33.000
32.000
42.000
33.000
42.000
28.000
36.000
27.000
21.000
33.000
33.000
30.000
43.000
26.000
25.000
25.000
36.000
28.000
34.000
22.000
26.000
32.000
32.000
25.000
28.000
29.000
33.000
21.000
23.000
33.000
26.000
22.000
32.000
35.000
22.000
30.000
28.000
28.000
22.000
27.000
32.000
30.000
18.000
21.000
34.000
22.000
26.000
24.000
26.000
30.000
33.000
33.000
31.000
26.000
29.000
32.000
28.000
14.000
26.000
23.000
23.000
25.000
30.000
24.000
28.000
27.000
28.000
33.000
37.000
30.000
67.000
107.000
131.000
186.000
214.000
223.000
214.000
175.000
143.000
117.000
56.000
39.000
34.000
23.000
27.000
20.000
20.000
19.000
16.000
23.000
18.000
26.000
19.000
16.000
25.000
15.000
13.000
17.000
19.000
22.000
15.000
21.000
26.000
20.000
22.000
41.000
37.000
55.000
32.000
52.000
36.000
34.000
34.000
22.000
17.000
21.000
12.000
21.000
20.000
18.000
17.000
10.000
28.000
10.000
25.000
16.000
14.000
15.000
16.000
16.000
10.000
11.000
9.000
13.000
15.000
19.000
14.000
19.000
13.000
16.000
15.000
9.000
11.000
24.000
11.000
10.000
11.000
16.000
18.000
11.000
10.000
6.000
9.000
11.000
10.000
16.000
12.000
16.000
7.000
14.000
13.000
6.000
16.000
14.000
6.000
9.000
10.000
13.000
13.000
10.000
13.000
13.000
13.000
20.000
10.000
10.000
15.000
9.000
8.000
13.000
8.000
8.000
13.000
5.000
8.000
11.000
7.000
9.000
15.000
13.000
15.000
10.000
8.000
15.000
9.000
6.000
6.000
8.000
6.000
9.000
7.000
8.000
8.000
15.000
7.000
9.000
7.000
7.000
10.000
9.000
10.000
8.000
9.000
14.000
5.000
5.000
6.000
9.000
6.000
11.000
14.000
8.000
7.000
5.000
9.000
13.000
11.000
5.000
10.000
8.000
8.000
5.000
4.000
10.000
8.000
4.000
8.000
13.000
18.000
5.000
7.000
8.000
6.000
10.000
7.000
7.000
9.000
2.000
5.000
3.000
8.000
5.000
7.000
4.000
13.000
11.000
7.000
7.000
5.000
9.000
3.000
11.000
10.000
3.000
8.000
4.000
8.000
7.000
9.000
4.000
3.000
10.000
8.000
9.000
7.000
6.000
4.000
2.000
6.000
8.000
2.000
2.000
7.000
5.000
8.000
2.000
7.000
5.000
4.000
9.000
4.000
7.000
7.000
5.000
6.000
9.000
5.000
7.000
4.000
7.000
6.000
5.000
5.000
2.000
3.000
7.000
5.000
5.000
4.000
10.000
5.000
3.000
3.000
3.000
1.000
6.000
7.000
5.000
4.000
3.000
3.000
4.000
3.000
2.000
8.000
3.000
3.000
3.000
1.000
6.000
7.000
1.000
4.000
2.000
5.000
1.000
3.000
4.000
2.000
4.000
3.000
3.000
3.000
2.000
2.000
2.000
4.000
4.000
3.000
2.000
0.000
4.000
2.000
1.000
3.000
5.000
2.000
5.000
3.000
4.000
7.000
2.000
2.000
3.000
2.000
2.000
2.000
4.000
3.000
1.000
3.000
2.000
5.000
1.000
4.000
1.000
3.000
5.000
3.000
4.000
5.000
3.000
5.000
0.000
5.000
4.000
1.000
2.000
0.000
0.000
4.000
2.000
3.000
2.000
2.000
0.000
2.000
1.000
0.000
0.000
2.000
2.000
0.000
0.000
1.000
3.000
1.000
0.000
3.000
2.000
1.000
3.000
1.000
0.000
1.000
4.000
3.000
1.000
1.000
1.000
0.000
1.000
0.000
1.000
1.000
2.000
1.000
1.000
1.000
2.000
2.000
0.000
3.000
1.000
1.000
2.000
2.000
2.000
2.000
1.000
1.000
1.000
0.000
3.000
1.000
0.000
1.000
0.000
0.000
1.000
0.000
1.000
1.000
0.000
2.000
0.000
0.000
0.000
0.000
1.000
0.000
0.000
0.000
0.000
1.000
2.000
0.000
0.000
2.000
0.000
0.000
0.000
0.000
0.000
1.000
0.000
2.000
1.000
0.000
0.000
0.000
0.000
0.000
0.000
0.000
0.000
0.000
0.000
0.000
0.000
0.000
0.000
0.000
1.000
0.000
0.000
0.000
0.000
0.000
0.000
0.000
0.000
0.000
0.000
0.000
0.000
0.000
0.000
0.000
0.000
0.000
0.000
0.000
0.000
0.000
0.000
0.000
0.000
0.000
0.000
0.000
0.000
0.000
0.000
0.000
0.000
0.000
0.000
0.000
0.000
0.000
0.000
0.000
0.000
0.000
0.000
0.000
0.000
0.000
0.000
0.000
0.000
0.000
0.000
0.000
0.000
0.000
0.000
0.000
0.000
0.000
0.000
0.000
0.000
0.000
0.000
0.000
0.000
0.000
0.000
0.000
0.000
0.000
0.000
0.000
0.000
0.000
0.000
0.000
0.000
0.000
0.000
0.000
0.000
0.000
0.000
0.000
0.000
0.000
0.000
0.000
0.000
0.000
0.000
0.000
0.000
0.000
0.000
0.000
0.000
0.000
0.000
0.000
0.000
0.000
0.000
0.000
0.000
0.000
0.000
0.000
0.000
0.000
0.000
0.000
0.000
0.000
0.000
0.000
0.000
0.000
0.000
0.000
0.000
0.000
0.000
0.000
0.000
0.000
0.000
0.000
0.000
0.000
0.000
0.000
0.000
0.000
0.000
0.000
0.000
0.000
0.000
0.000
0.000
0.000
0.000
0.000
0.000
0.000
0.000
0.000
0.000
0.000
0.000
0.000
0.000
0.000
0.000
0.000
0.000
0.000
0.000
0.000
0.000
0.000
0.000
0.000
0.000
0.000
0.000
0.000
0.000
0.000
0.000
0.000
0.000
0.000
0.000
0.000
0.000
0.000
0.000
0.000
0.000
0.000
0.000
0.000
0.000
0.000
0.000
0.000
0.000
0.000
0.000
0.000
0.000
0.000
0.000
0.000
0.000
0.000
0.000
0.000
0.000
0.000
0.000
0.000
0.000
0.000
0.000
0.000
0.000
0.000
0.000
0.000
0.000
0.000
0.000
0.000
0.000
0.000
0.000
0.000
0.000
0.000
0.000
0.000
0.000
0.000
0.000
0.000
0.000
0.000
0.000
0.000
0.000
0.000
0.000
0.000
0.000
0.000
0.000
0.000
0.000
0.000
0.000
0.000
0.000
0.000
0.000
0.000
0.000
0.000
0.000
0.000
0.000
0.000
0.000
0.000
0.000
0.000
0.000
0.000
0.000
0.000
0.000
0.000
0.000
0.000
0.000
0.000
0.000
0.000
0.000
0.000
0.000
0.000
0.000
0.000
0.000
0.000
0.000
0.000
0.000
0.000
0.000
#ENDOFDATA   :