File: data/SEM-data_2024/artifact_surfaces/Sem-survey_artifact_002_analysis_mw_region/spectrum.emsa
#FORMAT      : EMSA/MAS Spectral Data File
#VERSION     : 1.0
#TITLE       : EDS Spectrum
#DATE        : 19-SEP-2024
#TIME        : 11:20
#OWNER       : Thermo Fisher Scientific Inc.
#NPOINTS     : 2048.
#NCOLUMNS    : 1.
#XUNITS      : eV
#YUNITS      : Counts
#DATATYPE    : Y
#XPERCHAN    : 9.933
#OFFSET      : -44.878
#XLABEL      : Energy
#YLABEL      : Counts
#SIGNALTYPE  : EDS
#BEAMKV      : 15.000
#AZIMANGLE-dg: 0.0
#ELEVANGLE-dg: 28.5
#LIVETIME    : 544.254
#REALTIME    : 635.388
#EDSDET      : SDUTW
##MNFWHM     : 126.3
##INSTRUMENT : MVE075582-10647-L
##SLOWTPEAK  : 0.000004000
##FASTTPEAK  : 0.000000100
##OPTICALWD  : 0.005500000
##WD         : 0.0157999
##SDDAREA    : 0.000025
##CCORR      : 260.454
##SCORR      : LIN
#SPECTRUM    : Spectral Data Starts Here
0.000
0.000
0.000
0.000
0.000
0.000
0.000
192.000
71.000
59.000
38.000
55.000
57.000
79.000
169.000
344.000
469.000
336.000
186.000
143.000
237.000
433.000
490.000
352.000
358.000
837.000
2357.000
6137.000
9487.000
7567.000
2871.000
573.000
204.000
182.000
172.000
192.000
362.000
511.000
456.000
278.000
137.000
99.000
99.000
87.000
94.000
122.000
116.000
116.000
99.000
143.000
139.000
162.000
280.000
477.000
686.000
574.000
360.000
201.000
128.000
136.000
129.000
115.000
160.000
231.000
292.000
281.000
263.000
213.000
156.000
139.000
169.000
150.000
174.000
274.000
541.000
1113.000
1725.000
1914.000
1334.000
715.000
367.000
223.000
153.000
167.000
195.000
337.000
938.000
2347.000
4750.000
6786.000
6643.000
4484.000
2190.000
971.000
486.000
336.000
219.000
147.000
96.000
82.000
81.000
111.000
113.000
134.000
125.000
101.000
97.000
98.000
71.000
73.000
85.000
78.000
66.000
73.000
63.000
59.000
78.000
86.000
100.000
86.000
85.000
75.000
66.000
75.000
58.000
73.000
66.000
91.000
71.000
67.000
63.000
49.000
91.000
79.000
88.000
77.000
83.000
70.000
77.000
58.000
61.000
69.000
58.000
69.000
72.000
71.000
65.000
61.000
63.000
69.000
66.000
72.000
54.000
57.000
54.000
52.000
53.000
48.000
57.000
58.000
52.000
47.000
63.000
78.000
67.000
107.000
145.000
187.000
233.000
266.000
232.000
185.000
110.000
74.000
70.000
45.000
69.000
52.000
56.000
55.000
52.000
59.000
87.000
54.000
79.000
92.000
113.000
115.000
116.000
106.000
96.000
58.000
67.000
51.000
48.000
44.000
36.000
42.000
45.000
30.000
34.000
44.000
46.000
55.000
52.000
58.000
45.000
36.000
36.000
44.000
40.000
48.000
41.000
48.000
48.000
41.000
40.000
29.000
28.000
31.000
40.000
47.000
43.000
41.000
53.000
46.000
57.000
58.000
77.000
80.000
58.000
32.000
48.000
46.000
32.000
45.000
44.000
28.000
41.000
43.000
26.000
34.000
42.000
41.000
35.000
36.000
40.000
36.000
25.000
33.000
36.000
35.000
42.000
25.000
40.000
28.000
32.000
31.000
34.000
33.000
29.000
32.000
33.000
37.000
27.000
38.000
38.000
30.000
41.000
27.000
22.000
38.000
34.000
32.000
34.000
29.000
33.000
23.000
36.000
21.000
20.000
25.000
35.000
23.000
24.000
34.000
33.000
28.000
31.000
25.000
24.000
25.000
16.000
24.000
21.000
25.000
30.000
44.000
37.000
38.000
25.000
35.000
25.000
26.000
30.000
29.000
25.000
20.000
31.000
33.000
23.000
24.000
28.000
30.000
26.000
22.000
35.000
41.000
59.000
71.000
135.000
187.000
234.000
276.000
299.000
279.000
230.000
156.000
114.000
85.000
61.000
28.000
29.000
24.000
23.000
18.000
15.000
17.000
16.000
24.000
18.000
17.000
18.000
17.000
16.000
23.000
20.000
22.000
24.000
28.000
26.000
19.000
25.000
28.000
42.000
44.000
47.000
51.000
47.000
52.000
39.000
32.000
28.000
23.000
19.000
22.000
20.000
15.000
14.000
23.000
7.000
20.000
16.000
13.000
17.000
22.000
18.000
15.000
15.000
12.000
20.000
14.000
13.000
11.000
8.000
19.000
15.000
12.000
13.000
14.000
8.000
15.000
19.000
15.000
16.000
10.000
6.000
15.000
10.000
8.000
14.000
12.000
10.000
16.000
10.000
14.000
10.000
5.000
16.000
9.000
14.000
12.000
13.000
13.000
20.000
10.000
14.000
11.000
15.000
9.000
9.000
8.000
9.000
6.000
14.000
7.000
12.000
8.000
9.000
10.000
9.000
14.000
14.000
15.000
13.000
12.000
10.000
6.000
14.000
8.000
12.000
11.000
5.000
14.000
11.000
15.000
13.000
10.000
10.000
11.000
9.000
17.000
10.000
5.000
8.000
8.000
7.000
6.000
7.000
7.000
9.000
7.000
6.000
6.000
9.000
9.000
8.000
11.000
8.000
14.000
9.000
8.000
7.000
14.000
8.000
10.000
6.000
4.000
5.000
12.000
5.000
7.000
2.000
9.000
9.000
4.000
14.000
11.000
6.000
9.000
5.000
13.000
13.000
11.000
7.000
10.000
12.000
8.000
9.000
7.000
8.000
8.000
3.000
7.000
5.000
3.000
12.000
8.000
8.000
4.000
11.000
8.000
7.000
9.000
5.000
11.000
11.000
6.000
10.000
11.000
6.000
8.000
7.000
5.000
2.000
8.000
3.000
7.000
8.000
9.000
6.000
2.000
3.000
2.000
4.000
6.000
3.000
7.000
9.000
3.000
4.000
8.000
6.000
10.000
2.000
4.000
3.000
6.000
7.000
5.000
5.000
5.000
1.000
6.000
8.000
6.000
5.000
2.000
6.000
6.000
5.000
10.000
4.000
4.000
2.000
7.000
7.000
6.000
9.000
10.000
1.000
7.000
4.000
5.000
6.000
8.000
8.000
4.000
7.000
3.000
4.000
4.000
5.000
3.000
1.000
3.000
4.000
4.000
1.000
8.000
4.000
2.000
2.000
7.000
6.000
4.000
5.000
5.000
4.000
3.000
0.000
3.000
4.000
3.000
2.000
1.000
5.000
4.000
2.000
1.000
4.000
3.000
1.000
5.000
6.000
4.000
4.000
3.000
1.000
7.000
3.000
3.000
1.000
2.000
0.000
4.000
1.000
1.000
1.000
2.000
1.000
3.000
2.000
1.000
1.000
3.000
3.000
4.000
4.000
2.000
3.000
1.000
3.000
1.000
4.000
3.000
0.000
3.000
2.000
4.000
4.000
2.000
0.000
0.000
0.000
1.000
1.000
0.000
2.000
0.000
4.000
4.000
1.000
0.000
3.000
0.000
2.000
0.000
1.000
1.000
0.000
1.000
3.000
3.000
2.000
1.000
1.000
1.000
2.000
0.000
0.000
1.000
2.000
2.000
2.000
0.000
0.000
0.000
2.000
1.000
0.000
1.000
2.000
0.000
0.000
0.000
0.000
0.000
1.000
0.000
0.000
0.000
0.000
0.000
0.000
0.000
2.000
0.000
3.000
0.000
0.000
1.000
0.000
0.000
2.000
1.000
1.000
2.000
0.000
0.000
1.000
1.000
0.000
0.000
0.000
0.000
1.000
2.000
1.000
2.000
0.000
1.000
0.000
0.000
0.000
0.000
0.000
0.000
1.000
0.000
1.000
2.000
0.000
0.000
0.000
0.000
0.000
0.000
0.000
0.000
0.000
0.000
0.000
0.000
0.000
0.000
0.000
0.000
0.000
0.000
0.000
0.000
0.000
0.000
0.000
0.000
0.000
0.000
0.000
0.000
0.000
0.000
0.000
0.000
0.000
0.000
0.000
0.000
0.000
0.000
0.000
0.000
0.000
0.000
0.000
0.000
0.000
0.000
0.000
0.000
0.000
0.000
0.000
0.000
0.000
0.000
0.000
0.000
0.000
0.000
0.000
0.000
0.000
0.000
0.000
0.000
0.000
0.000
0.000
0.000
0.000
0.000
0.000
0.000
0.000
0.000
0.000
0.000
0.000
0.000
0.000
0.000
0.000
0.000
0.000
0.000
0.000
0.000
0.000
0.000
0.000
0.000
0.000
0.000
0.000
0.000
0.000
0.000
0.000
0.000
0.000
0.000
0.000
0.000
0.000
0.000
0.000
0.000
0.000
0.000
0.000
0.000
0.000
0.000
0.000
0.000
0.000
0.000
0.000
0.000
0.000
0.000
0.000
0.000
0.000
0.000
0.000
0.000
0.000
0.000
0.000
0.000
0.000
0.000
0.000
0.000
0.000
0.000
0.000
0.000
0.000
0.000
0.000
0.000
0.000
0.000
0.000
0.000
0.000
0.000
0.000
0.000
0.000
0.000
0.000
0.000
0.000
0.000
0.000
0.000
0.000
0.000
0.000
0.000
0.000
0.000
0.000
0.000
0.000
0.000
0.000
0.000
0.000
0.000
0.000
0.000
0.000
0.000
0.000
0.000
0.000
0.000
0.000
0.000
0.000
0.000
0.000
0.000
0.000
0.000
0.000
0.000
0.000
0.000
0.000
0.000
0.000
0.000
0.000
0.000
0.000
0.000
0.000
0.000
0.000
0.000
0.000
0.000
0.000
0.000
0.000
0.000
0.000
0.000
0.000
0.000
0.000
0.000
0.000
0.000
0.000
0.000
0.000
0.000
0.000
0.000
0.000
0.000
0.000
0.000
0.000
0.000
0.000
0.000
0.000
0.000
0.000
0.000
0.000
0.000
0.000
0.000
0.000
0.000
0.000
0.000
0.000
0.000
0.000
0.000
0.000
0.000
0.000
0.000
0.000
0.000
0.000
0.000
0.000
0.000
0.000
0.000
0.000
0.000
0.000
0.000
0.000
0.000
0.000
0.000
0.000
0.000
0.000
0.000
0.000
0.000
0.000
0.000
0.000
0.000
0.000
0.000
0.000
0.000
0.000
#ENDOFDATA   :