File: data/SEM-data_2024/cross_sections/P5-1843_medial_analysis_1_map/spectrum.emsa
#FORMAT      : EMSA/MAS Spectral Data File
#VERSION     : 1.0
#TITLE       : EDS Spectrum
#DATE        : 19-SEP-2024
#TIME        : 14:36
#OWNER       : Thermo Fisher Scientific Inc.
#NPOINTS     : 2048.
#NCOLUMNS    : 1.
#XUNITS      : eV
#YUNITS      : Counts
#DATATYPE    : Y
#XPERCHAN    : 9.903
#OFFSET      : -56.900
#XLABEL      : Energy
#YLABEL      : Counts
#SIGNALTYPE  : EDS
#BEAMKV      : 15.000
#AZIMANGLE-dg: 0.0
#ELEVANGLE-dg: 28.5
#LIVETIME    : 129.259
#REALTIME    : 138.772
#EDSDET      : SDUTW
##MNFWHM     : 129.6
##INSTRUMENT : MVE075582-10647-L
##SLOWTPEAK  : 0.000001000
##FASTTPEAK  : 0.000000100
##OPTICALWD  : 0.005500000
##WD         : 0.005931076
##SDDAREA    : 0.000025
##CCORR      : 260.454
##SCORR      : LIN
#SPECTRUM    : Spectral Data Starts Here
0.000
0.000
0.000
0.000
0.000
0.000
0.000
0.000
0.000
0.000
0.000
0.000
0.000
100.000
821.000
1876.000
3563.000
4741.000
3613.000
1832.000
1203.000
1275.000
1512.000
1787.000
2287.000
4466.000
12408.000
34538.000
74454.000
99276.000
78845.000
36057.000
9941.000
2176.000
912.000
860.000
964.000
1061.000
1100.000
1210.000
1121.000
1057.000
1127.000
1123.000
1116.000
1135.000
1238.000
1276.000
1341.000
1512.000
1613.000
2156.000
3294.000
6282.000
10643.000
13607.000
12132.000
7504.000
3932.000
2182.000
1811.000
1665.000
1686.000
1807.000
2090.000
2343.000
2348.000
2330.000
2224.000
2094.000
1957.000
2144.000
2332.000
2666.000
4468.000
8747.000
16066.000
23861.000
25261.000
20269.000
12052.000
6503.000
3977.000
3050.000
3019.000
3869.000
8123.000
21725.000
52743.000
98373.000
134681.000
134997.000
99294.000
55762.000
25686.000
12359.000
7124.000
4457.000
2599.000
1603.000
1231.000
1115.000
1166.000
1246.000
1194.000
1173.000
1119.000
1085.000
1027.000
1007.000
1030.000
1066.000
1109.000
1142.000
1320.000
1343.000
1579.000
1527.000
1505.000
1426.000
1397.000
1199.000
1054.000
1076.000
999.000
1104.000
1048.000
1014.000
1049.000
1009.000
981.000
1103.000
1039.000
1033.000
1017.000
1056.000
1075.000
1025.000
1017.000
984.000
1017.000
1033.000
978.000
1084.000
1026.000
965.000
941.000
982.000
977.000
999.000
956.000
957.000
951.000
924.000
963.000
926.000
937.000
965.000
912.000
886.000
900.000
947.000
958.000
950.000
1047.000
1010.000
1176.000
1397.000
1649.000
1918.000
2026.000
1944.000
1618.000
1321.000
1149.000
969.000
976.000
1085.000
1079.000
1002.000
967.000
996.000
997.000
1005.000
1078.000
1172.000
1350.000
1645.000
1770.000
2044.000
1953.000
1617.000
1387.000
1104.000
977.000
845.000
795.000
781.000
765.000
733.000
714.000
753.000
808.000
836.000
841.000
846.000
864.000
846.000
794.000
689.000
741.000
690.000
693.000
726.000
685.000
702.000
688.000
672.000
683.000
673.000
741.000
685.000
663.000
649.000
667.000
655.000
720.000
724.000
760.000
846.000
870.000
795.000
776.000
720.000
656.000
649.000
578.000
615.000
612.000
563.000
621.000
618.000
624.000
604.000
612.000
571.000
623.000
616.000
573.000
644.000
596.000
583.000
620.000
576.000
591.000
581.000
581.000
565.000
570.000
548.000
552.000
540.000
498.000
522.000
521.000
527.000
538.000
561.000
524.000
520.000
531.000
476.000
543.000
498.000
515.000
513.000
494.000
538.000
484.000
509.000
495.000
487.000
484.000
501.000
467.000
457.000
456.000
490.000
449.000
443.000
464.000
452.000
477.000
440.000
428.000
466.000
468.000
458.000
451.000
459.000
465.000
444.000
460.000
440.000
474.000
420.000
415.000
417.000
417.000
376.000
400.000
399.000
426.000
429.000
386.000
385.000
424.000
391.000
436.000
386.000
442.000
489.000
523.000
637.000
726.000
763.000
760.000
705.000
685.000
559.000
535.000
465.000
401.000
404.000
370.000
318.000
344.000
322.000
354.000
345.000
333.000
360.000
369.000
341.000
327.000
332.000
345.000
319.000
300.000
342.000
316.000
348.000
392.000
334.000
358.000
337.000
351.000
383.000
369.000
382.000
352.000
375.000
359.000
309.000
304.000
310.000
311.000
307.000
297.000
292.000
295.000
311.000
277.000
288.000
303.000
285.000
284.000
276.000
290.000
313.000
271.000
297.000
296.000
264.000
252.000
282.000
259.000
250.000
266.000
269.000
256.000
273.000
258.000
255.000
254.000
261.000
254.000
259.000
257.000
252.000
232.000
248.000
255.000
271.000
239.000
241.000
282.000
267.000
211.000
245.000
224.000
219.000
232.000
249.000
251.000
244.000
222.000
220.000
218.000
187.000
240.000
241.000
214.000
235.000
207.000
235.000
194.000
247.000
207.000
210.000
237.000
229.000
205.000
212.000
197.000
228.000
214.000
220.000
189.000
184.000
184.000
193.000
186.000
197.000
170.000
207.000
196.000
192.000
199.000
171.000
187.000
199.000
188.000
208.000
193.000
186.000
196.000
182.000
202.000
202.000
202.000
158.000
174.000
159.000
156.000
172.000
174.000
183.000
150.000
162.000
164.000
176.000
180.000
151.000
156.000
149.000
172.000
162.000
154.000
147.000
156.000
151.000
139.000
169.000
159.000
162.000
132.000
134.000
135.000
133.000
139.000
160.000
148.000
120.000
127.000
130.000
140.000
154.000
154.000
138.000
130.000
155.000
147.000
129.000
136.000
141.000
130.000
140.000
128.000
158.000
117.000
147.000
114.000
110.000
125.000
129.000
125.000
134.000
118.000
141.000
131.000
128.000
112.000
95.000
123.000
117.000
106.000
142.000
117.000
111.000
117.000
100.000
101.000
103.000
119.000
128.000
90.000
112.000
98.000
106.000
112.000
124.000
104.000
93.000
70.000
104.000
99.000
86.000
110.000
100.000
104.000
90.000
81.000
93.000
92.000
107.000
92.000
90.000
102.000
76.000
91.000
93.000
85.000
91.000
90.000
86.000
88.000
77.000
69.000
72.000
82.000
81.000
82.000
77.000
87.000
83.000
98.000
69.000
78.000
71.000
87.000
79.000
86.000
75.000
75.000
63.000
75.000
63.000
66.000
66.000
60.000
78.000
78.000
72.000
67.000
49.000
52.000
56.000
71.000
52.000
64.000
49.000
50.000
66.000
72.000
57.000
56.000
62.000
55.000
58.000
58.000
61.000
43.000
58.000
55.000
54.000
46.000
50.000
47.000
53.000
53.000
55.000
60.000
64.000
45.000
52.000
49.000
59.000
42.000
53.000
46.000
52.000
52.000
48.000
39.000
44.000
33.000
51.000
49.000
45.000
43.000
39.000
42.000
33.000
43.000
30.000
44.000
37.000
34.000
43.000
49.000
28.000
33.000
43.000
37.000
26.000
32.000
33.000
36.000
23.000
29.000
30.000
32.000
27.000
23.000
25.000
33.000
34.000
38.000
31.000
20.000
21.000
32.000
27.000
26.000
27.000
32.000
23.000
21.000
29.000
38.000
26.000
25.000
24.000
24.000
30.000
21.000
18.000
19.000
22.000
20.000
17.000
20.000
21.000
18.000
22.000
17.000
20.000
14.000
12.000
9.000
18.000
9.000
25.000
12.000
15.000
12.000
18.000
11.000
19.000
9.000
10.000
10.000
10.000
8.000
10.000
12.000
12.000
9.000
3.000
13.000
11.000
9.000
7.000
12.000
11.000
8.000
7.000
11.000
5.000
14.000
2.000
1.000
5.000
7.000
8.000
5.000
7.000
5.000
2.000
2.000
2.000
4.000
4.000
3.000
1.000
3.000
2.000
2.000
2.000
0.000
1.000
3.000
1.000
0.000
3.000
0.000
1.000
0.000
3.000
0.000
2.000
0.000
0.000
2.000
0.000
0.000
0.000
0.000
0.000
0.000
0.000
0.000
0.000
1.000
0.000
0.000
1.000
0.000
0.000
0.000
0.000
0.000
0.000
0.000
0.000
0.000
0.000
0.000
0.000
0.000
0.000
0.000
0.000
0.000
0.000
0.000
1.000
0.000
0.000
0.000
0.000
0.000
0.000
0.000
0.000
0.000
0.000
0.000
0.000
0.000
0.000
1.000
0.000
0.000
1.000
0.000
0.000
0.000
0.000
0.000
0.000
1.000
0.000
0.000
0.000
1.000
0.000
0.000
0.000
0.000
0.000
0.000
0.000
0.000
0.000
0.000
0.000
0.000
0.000
0.000
0.000
0.000
0.000
0.000
0.000
0.000
0.000
0.000
0.000
0.000
0.000
0.000
0.000
0.000
0.000
0.000
0.000
0.000
0.000
0.000
0.000
0.000
1.000
0.000
0.000
0.000
0.000
0.000
0.000
0.000
0.000
0.000
0.000
0.000
0.000
0.000
0.000
0.000
0.000
0.000
0.000
1.000
0.000
0.000
0.000
0.000
0.000
0.000
0.000
1.000
0.000
0.000
0.000
0.000
0.000
0.000
0.000
0.000
0.000
0.000
0.000
0.000
0.000
0.000
0.000
0.000
0.000
0.000
0.000
0.000
0.000
0.000
0.000
0.000
0.000
0.000
0.000
0.000
0.000
0.000
0.000
0.000
0.000
0.000
0.000
0.000
1.000
0.000
0.000
0.000
1.000
0.000
0.000
0.000
0.000
0.000
0.000
0.000
0.000
0.000
0.000
0.000
0.000
0.000
0.000
0.000
0.000
0.000
0.000
0.000
0.000
0.000
0.000
0.000
0.000
0.000
0.000
0.000
0.000
0.000
0.000
0.000
1.000
0.000
0.000
0.000
0.000
0.000
0.000
0.000
0.000
0.000
0.000
0.000
0.000
0.000
0.000
0.000
0.000
0.000
0.000
0.000
0.000
1.000
0.000
0.000
0.000
0.000
0.000
0.000
0.000
0.000
0.000
0.000
0.000
0.000
0.000
0.000
0.000
0.000
0.000
0.000
0.000
0.000
0.000
0.000
0.000
0.000
0.000
0.000
0.000
0.000
0.000
1.000
0.000
0.000
0.000
0.000
0.000
0.000
0.000
0.000
0.000
0.000
#ENDOFDATA   :