File: data/SEM-data_2024/artifact_surfaces/P1-495_artifact_002_analysis_lw_region/spectrum.emsa
#FORMAT      : EMSA/MAS Spectral Data File
#VERSION     : 1.0
#TITLE       : EDS Spectrum
#DATE        : 19-SEP-2024
#TIME        : 11:20
#OWNER       : Thermo Fisher Scientific Inc.
#NPOINTS     : 2048.
#NCOLUMNS    : 1.
#XUNITS      : eV
#YUNITS      : Counts
#DATATYPE    : Y
#XPERCHAN    : 9.933
#OFFSET      : -44.878
#XLABEL      : Energy
#YLABEL      : Counts
#SIGNALTYPE  : EDS
#BEAMKV      : 15.000
#AZIMANGLE-dg: 0.0
#ELEVANGLE-dg: 28.5
#LIVETIME    : 33.136
#REALTIME    : 40.992
#EDSDET      : SDUTW
##MNFWHM     : 126.3
##INSTRUMENT : MVE075582-10647-L
##SLOWTPEAK  : 0.000004000
##FASTTPEAK  : 0.000000100
##OPTICALWD  : 0.005500000
##WD         : 0.010588
##SDDAREA    : 0.000025
##CCORR      : 260.454
##SCORR      : LIN
#SPECTRUM    : Spectral Data Starts Here
0.000
0.000
0.000
0.000
0.000
0.000
0.000
117.000
92.000
60.000
72.000
70.000
76.000
126.000
300.000
609.000
763.000
557.000
272.000
147.000
185.000
279.000
308.000
307.000
396.000
1107.000
3122.000
7859.000
11857.000
9272.000
3438.000
749.000
183.000
171.000
154.000
185.000
199.000
285.000
251.000
185.000
143.000
132.000
121.000
119.000
111.000
118.000
136.000
118.000
131.000
136.000
149.000
228.000
397.000
677.000
856.000
743.000
441.000
239.000
144.000
151.000
116.000
128.000
126.000
152.000
201.000
184.000
196.000
170.000
130.000
131.000
131.000
129.000
141.000
198.000
452.000
780.000
1284.000
1356.000
948.000
567.000
287.000
172.000
172.000
171.000
178.000
353.000
950.000
2557.000
5190.000
7252.000
7034.000
4644.000
2242.000
956.000
490.000
304.000
198.000
117.000
73.000
54.000
85.000
69.000
67.000
82.000
74.000
72.000
58.000
53.000
53.000
58.000
42.000
49.000
51.000
55.000
62.000
53.000
67.000
60.000
75.000
70.000
50.000
62.000
65.000
53.000
56.000
40.000
54.000
50.000
44.000
61.000
54.000
54.000
61.000
62.000
57.000
74.000
48.000
39.000
43.000
49.000
31.000
43.000
53.000
42.000
35.000
47.000
52.000
56.000
41.000
37.000
32.000
41.000
43.000
38.000
45.000
40.000
45.000
33.000
34.000
32.000
38.000
44.000
43.000
36.000
46.000
70.000
81.000
118.000
120.000
135.000
153.000
119.000
77.000
48.000
29.000
50.000
39.000
42.000
33.000
42.000
44.000
51.000
39.000
49.000
50.000
49.000
57.000
47.000
62.000
41.000
32.000
46.000
45.000
23.000
23.000
29.000
30.000
32.000
34.000
29.000
26.000
35.000
26.000
28.000
26.000
43.000
31.000
26.000
31.000
24.000
35.000
22.000
26.000
27.000
34.000
28.000
23.000
27.000
33.000
19.000
21.000
24.000
35.000
28.000
29.000
18.000
26.000
33.000
24.000
31.000
25.000
22.000
25.000
25.000
19.000
18.000
18.000
18.000
16.000
21.000
22.000
15.000
26.000
18.000
23.000
14.000
20.000
20.000
23.000
25.000
14.000
11.000
18.000
20.000
25.000
19.000
26.000
20.000
26.000
22.000
20.000
19.000
21.000
19.000
22.000
25.000
23.000
17.000
18.000
26.000
25.000
20.000
20.000
20.000
18.000
17.000
23.000
16.000
17.000
18.000
13.000
24.000
11.000
19.000
24.000
16.000
16.000
19.000
15.000
11.000
25.000
24.000
12.000
23.000
10.000
15.000
16.000
24.000
13.000
18.000
11.000
13.000
13.000
16.000
12.000
16.000
21.000
22.000
24.000
15.000
7.000
14.000
18.000
11.000
16.000
14.000
14.000
20.000
16.000
24.000
46.000
46.000
52.000
55.000
94.000
70.000
64.000
38.000
26.000
24.000
13.000
17.000
4.000
16.000
12.000
9.000
12.000
12.000
15.000
14.000
8.000
14.000
13.000
6.000
21.000
17.000
8.000
7.000
15.000
8.000
15.000
19.000
12.000
23.000
14.000
17.000
20.000
19.000
15.000
18.000
16.000
12.000
15.000
8.000
11.000
5.000
9.000
16.000
7.000
11.000
7.000
9.000
14.000
9.000
8.000
10.000
9.000
9.000
11.000
6.000
10.000
9.000
6.000
4.000
16.000
13.000
13.000
14.000
10.000
13.000
3.000
5.000
4.000
11.000
8.000
4.000
9.000
15.000
13.000
13.000
9.000
15.000
11.000
12.000
12.000
8.000
13.000
12.000
8.000
16.000
11.000
6.000
3.000
15.000
8.000
7.000
7.000
13.000
12.000
8.000
9.000
9.000
7.000
11.000
12.000
11.000
6.000
5.000
9.000
7.000
6.000
12.000
8.000
11.000
5.000
5.000
11.000
3.000
7.000
4.000
12.000
12.000
15.000
3.000
5.000
10.000
9.000
8.000
4.000
7.000
8.000
7.000
6.000
9.000
4.000
6.000
6.000
4.000
6.000
8.000
4.000
14.000
4.000
9.000
6.000
4.000
4.000
4.000
6.000
5.000
1.000
8.000
5.000
9.000
4.000
8.000
5.000
9.000
5.000
6.000
6.000
8.000
1.000
2.000
4.000
4.000
8.000
3.000
8.000
5.000
4.000
3.000
7.000
4.000
7.000
6.000
5.000
8.000
8.000
3.000
7.000
6.000
5.000
5.000
4.000
4.000
4.000
9.000
12.000
4.000
6.000
4.000
5.000
3.000
4.000
6.000
5.000
6.000
9.000
3.000
2.000
4.000
2.000
3.000
3.000
7.000
7.000
0.000
4.000
2.000
1.000
4.000
5.000
1.000
2.000
10.000
5.000
0.000
4.000
3.000
2.000
2.000
2.000
0.000
3.000
5.000
5.000
1.000
4.000
1.000
1.000
4.000
3.000
2.000
4.000
5.000
4.000
6.000
5.000
2.000
4.000
4.000
2.000
1.000
1.000
3.000
3.000
4.000
2.000
5.000
3.000
2.000
2.000
7.000
4.000
1.000
5.000
0.000
1.000
3.000
2.000
3.000
4.000
2.000
1.000
2.000
1.000
2.000
3.000
5.000
3.000
0.000
1.000
1.000
1.000
1.000
2.000
0.000
1.000
1.000
0.000
0.000
3.000
3.000
3.000
1.000
1.000
0.000
0.000
3.000
1.000
2.000
0.000
4.000
2.000
1.000
0.000
1.000
0.000
4.000
1.000
1.000
1.000
0.000
4.000
0.000
0.000
1.000
1.000
0.000
0.000
1.000
1.000
1.000
1.000
2.000
3.000
2.000
2.000
0.000
2.000
1.000
0.000
1.000
4.000
3.000
4.000
1.000
0.000
0.000
3.000
2.000
3.000
1.000
0.000
1.000
2.000
0.000
3.000
1.000
3.000
2.000
2.000
1.000
2.000
1.000
1.000
0.000
0.000
2.000
1.000
3.000
0.000
1.000
0.000
1.000
0.000
0.000
0.000
1.000
1.000
1.000
3.000
1.000
3.000
0.000
0.000
0.000
0.000
0.000
3.000
0.000
0.000
0.000
3.000
0.000
4.000
1.000
0.000
1.000
1.000
0.000
0.000
1.000
1.000
1.000
0.000
0.000
0.000
1.000
1.000
0.000
1.000
0.000
1.000
1.000
0.000
0.000
0.000
1.000
1.000
1.000
0.000
0.000
0.000
1.000
0.000
0.000
2.000
0.000
1.000
2.000
0.000
0.000
0.000
0.000
0.000
0.000
0.000
0.000
0.000
0.000
1.000
0.000
0.000
0.000
0.000
0.000
0.000
0.000
0.000
0.000
0.000
0.000
0.000
0.000
0.000
0.000
0.000
0.000
0.000
0.000
0.000
0.000
0.000
0.000
0.000
0.000
0.000
0.000
0.000
0.000
0.000
0.000
0.000
0.000
0.000
0.000
0.000
0.000
0.000
0.000
0.000
0.000
0.000
0.000
0.000
0.000
0.000
0.000
0.000
0.000
0.000
0.000
0.000
0.000
0.000
0.000
0.000
0.000
0.000
0.000
0.000
0.000
0.000
0.000
0.000
0.000
0.000
0.000
0.000
0.000
0.000
0.000
0.000
0.000
0.000
0.000
0.000
0.000
0.000
0.000
0.000
0.000
0.000
0.000
0.000
0.000
0.000
0.000
0.000
0.000
0.000
0.000
0.000
0.000
0.000
0.000
0.000
0.000
0.000
0.000
0.000
0.000
0.000
0.000
0.000
0.000
0.000
0.000
0.000
0.000
0.000
0.000
0.000
0.000
0.000
0.000
0.000
0.000
0.000
0.000
0.000
0.000
0.000
0.000
0.000
0.000
0.000
0.000
0.000
0.000
0.000
0.000
0.000
0.000
0.000
0.000
0.000
0.000
0.000
0.000
0.000
0.000
0.000
0.000
0.000
0.000
0.000
0.000
0.000
0.000
0.000
0.000
0.000
0.000
0.000
0.000
0.000
0.000
0.000
0.000
0.000
0.000
0.000
0.000
0.000
0.000
0.000
0.000
0.000
0.000
0.000
0.000
0.000
0.000
0.000
0.000
0.000
0.000
0.000
0.000
0.000
0.000
0.000
0.000
0.000
0.000
0.000
0.000
0.000
0.000
0.000
0.000
0.000
0.000
0.000
0.000
0.000
0.000
0.000
0.000
0.000
0.000
0.000
0.000
0.000
0.000
0.000
0.000
0.000
0.000
0.000
0.000
0.000
0.000
0.000
0.000
0.000
0.000
0.000
0.000
0.000
0.000
0.000
0.000
0.000
0.000
0.000
0.000
0.000
0.000
0.000
0.000
0.000
0.000
0.000
0.000
0.000
0.000
0.000
0.000
0.000
0.000
0.000
0.000
0.000
0.000
0.000
0.000
0.000
0.000
0.000
0.000
0.000
0.000
0.000
0.000
0.000
0.000
0.000
0.000
0.000
0.000
0.000
0.000
0.000
0.000
0.000
0.000
0.000
0.000
0.000
0.000
0.000
0.000
0.000
0.000
0.000
0.000
0.000
0.000
0.000
0.000
0.000
#ENDOFDATA   :