File: data/SEM-data_2024/cross_sections/P1-83_medial_analysis_1_map/spectrum.emsa
#FORMAT      : EMSA/MAS Spectral Data File
#VERSION     : 1.0
#TITLE       : EDS Spectrum
#DATE        : 19-SEP-2024
#TIME        : 14:36
#OWNER       : Thermo Fisher Scientific Inc.
#NPOINTS     : 2048.
#NCOLUMNS    : 1.
#XUNITS      : eV
#YUNITS      : Counts
#DATATYPE    : Y
#XPERCHAN    : 9.903
#OFFSET      : -56.900
#XLABEL      : Energy
#YLABEL      : Counts
#SIGNALTYPE  : EDS
#BEAMKV      : 15.000
#AZIMANGLE-dg: 0.0
#ELEVANGLE-dg: 28.5
#LIVETIME    : 107.322
#REALTIME    : 116.553
#EDSDET      : SDUTW
##MNFWHM     : 129.6
##INSTRUMENT : MVE075582-10647-L
##SLOWTPEAK  : 0.000001000
##FASTTPEAK  : 0.000000100
##OPTICALWD  : 0.005500000
##WD         : 0.006369887
##SDDAREA    : 0.000025
##CCORR      : 260.454
##SCORR      : LIN
#SPECTRUM    : Spectral Data Starts Here
0.000
0.000
0.000
0.000
0.000
0.000
0.000
0.000
0.000
0.000
0.000
0.000
0.000
116.000
894.000
2173.000
4063.000
5439.000
4210.000
2113.000
1284.000
1240.000
1576.000
1870.000
2502.000
4734.000
13321.000
37248.000
79550.000
105683.000
84203.000
38360.000
10491.000
2350.000
1109.000
1079.000
1180.000
1321.000
1482.000
1511.000
1369.000
1192.000
1199.000
1177.000
1251.000
1293.000
1342.000
1449.000
1415.000
1588.000
1715.000
2258.000
3461.000
6854.000
11751.000
15001.000
13197.000
8292.000
4197.000
2286.000
1790.000
1796.000
1778.000
1929.000
2406.000
2786.000
2969.000
2777.000
2357.000
2157.000
2158.000
2135.000
2357.000
2752.000
4848.000
9957.000
18934.000
27347.000
28972.000
22930.000
13666.000
7070.000
4136.000
3124.000
2938.000
3902.000
7862.000
20762.000
50557.000
94250.000
129361.000
130020.000
95098.000
52984.000
25091.000
11784.000
6937.000
4172.000
2537.000
1639.000
1277.000
1203.000
1170.000
1215.000
1243.000
1268.000
1152.000
1122.000
1096.000
1137.000
1101.000
1027.000
1105.000
1175.000
1339.000
1481.000
1607.000
1747.000
1831.000
1643.000
1437.000
1328.000
1137.000
1098.000
1061.000
1076.000
1066.000
1061.000
1013.000
1135.000
1040.000
982.000
1021.000
1057.000
1037.000
1087.000
1029.000
1089.000
1036.000
980.000
980.000
1000.000
1015.000
1061.000
1006.000
1022.000
1007.000
976.000
959.000
956.000
984.000
959.000
973.000
934.000
971.000
950.000
966.000
939.000
887.000
926.000
928.000
930.000
961.000
872.000
968.000
1003.000
989.000
1017.000
1050.000
1072.000
1071.000
1080.000
997.000
983.000
949.000
972.000
1034.000
1033.000
999.000
1048.000
1084.000
909.000
935.000
957.000
1007.000
1280.000
1573.000
2080.000
2480.000
2703.000
2620.000
2113.000
1654.000
1278.000
970.000
858.000
785.000
748.000
724.000
799.000
787.000
855.000
836.000
896.000
956.000
974.000
885.000
920.000
868.000
795.000
757.000
725.000
707.000
752.000
723.000
713.000
691.000
672.000
690.000
666.000
744.000
665.000
685.000
651.000
653.000
682.000
732.000
732.000
779.000
770.000
860.000
881.000
771.000
765.000
707.000
631.000
636.000
623.000
586.000
595.000
626.000
577.000
576.000
648.000
613.000
547.000
583.000
575.000
585.000
623.000
513.000
570.000
577.000
590.000
567.000
587.000
606.000
564.000
513.000
524.000
586.000
564.000
561.000
503.000
567.000
526.000
554.000
529.000
539.000
466.000
486.000
521.000
589.000
490.000
499.000
492.000
505.000
542.000
516.000
521.000
484.000
546.000
489.000
486.000
496.000
476.000
451.000
484.000
506.000
471.000
446.000
491.000
463.000
492.000
477.000
469.000
508.000
509.000
510.000
507.000
544.000
526.000
491.000
476.000
495.000
436.000
434.000
435.000
404.000
432.000
435.000
409.000
435.000
415.000
414.000
401.000
386.000
407.000
431.000
458.000
499.000
630.000
746.000
947.000
1049.000
1132.000
1160.000
1087.000
992.000
882.000
679.000
511.000
451.000
415.000
375.000
379.000
356.000
361.000
367.000
400.000
352.000
374.000
330.000
334.000
345.000
350.000
336.000
318.000
317.000
367.000
340.000
325.000
320.000
356.000
384.000
379.000
398.000
438.000
422.000
416.000
405.000
398.000
368.000
361.000
337.000
316.000
304.000
288.000
339.000
279.000
321.000
311.000
286.000
280.000
272.000
284.000
292.000
309.000
288.000
280.000
276.000
243.000
295.000
243.000
258.000
263.000
278.000
303.000
311.000
271.000
267.000
259.000
275.000
236.000
251.000
281.000
250.000
256.000
227.000
276.000
257.000
244.000
287.000
273.000
269.000
251.000
252.000
255.000
267.000
237.000
251.000
235.000
236.000
252.000
272.000
243.000
230.000
210.000
257.000
235.000
241.000
225.000
228.000
228.000
242.000
225.000
237.000
212.000
226.000
216.000
208.000
196.000
211.000
210.000
217.000
229.000
212.000
202.000
210.000
203.000
222.000
170.000
213.000
168.000
195.000
200.000
204.000
212.000
192.000
206.000
205.000
178.000
195.000
192.000
164.000
188.000
172.000
192.000
176.000
167.000
185.000
172.000
149.000
168.000
189.000
161.000
177.000
181.000
179.000
179.000
157.000
183.000
174.000
177.000
174.000
168.000
160.000
151.000
166.000
163.000
148.000
170.000
153.000
157.000
157.000
170.000
162.000
166.000
160.000
162.000
152.000
156.000
142.000
155.000
141.000
149.000
160.000
139.000
133.000
123.000
133.000
139.000
151.000
133.000
146.000
130.000
123.000
120.000
128.000
149.000
136.000
132.000
110.000
150.000
123.000
109.000
113.000
122.000
141.000
118.000
134.000
115.000
116.000
113.000
113.000
104.000
95.000
148.000
108.000
105.000
105.000
126.000
115.000
114.000
109.000
118.000
110.000
122.000
104.000
91.000
103.000
108.000
104.000
107.000
103.000
107.000
85.000
123.000
122.000
96.000
98.000
99.000
101.000
85.000
91.000
101.000
114.000
76.000
97.000
81.000
91.000
90.000
89.000
93.000
85.000
97.000
92.000
88.000
110.000
77.000
67.000
79.000
98.000
84.000
74.000
74.000
88.000
94.000
80.000
87.000
69.000
66.000
66.000
81.000
69.000
89.000
59.000
84.000
80.000
70.000
74.000
92.000
76.000
77.000
78.000
62.000
80.000
72.000
75.000
57.000
76.000
74.000
78.000
54.000
67.000
51.000
68.000
66.000
66.000
72.000
62.000
57.000
66.000
65.000
47.000
62.000
63.000
54.000
48.000
50.000
62.000
53.000
49.000
44.000
53.000
53.000
53.000
47.000
46.000
46.000
46.000
47.000
40.000
54.000
37.000
34.000
51.000
46.000
50.000
37.000
52.000
46.000
40.000
42.000
46.000
44.000
44.000
39.000
38.000
34.000
31.000
49.000
48.000
30.000
43.000
36.000
34.000
37.000
37.000
27.000
38.000
37.000
29.000
35.000
35.000
37.000
31.000
34.000
32.000
29.000
31.000
24.000
30.000
24.000
18.000
29.000
24.000
19.000
17.000
27.000
30.000
23.000
25.000
22.000
20.000
26.000
25.000
27.000
22.000
23.000
23.000
25.000
19.000
23.000
20.000
21.000
15.000
26.000
17.000
12.000
26.000
26.000
18.000
20.000
28.000
15.000
9.000
8.000
16.000
10.000
17.000
18.000
20.000
10.000
16.000
7.000
6.000
11.000
17.000
7.000
9.000
11.000
14.000
7.000
10.000
5.000
7.000
11.000
10.000
6.000
13.000
4.000
8.000
8.000
8.000
10.000
8.000
4.000
4.000
5.000
3.000
2.000
4.000
3.000
2.000
1.000
2.000
2.000
3.000
0.000
3.000
2.000
5.000
2.000
1.000
2.000
0.000
1.000
2.000
0.000
0.000
1.000
0.000
0.000
0.000
0.000
0.000
0.000
0.000
0.000
0.000
1.000
1.000
0.000
0.000
0.000
0.000
1.000
0.000
0.000
0.000
0.000
0.000
0.000
0.000
0.000
0.000
1.000
0.000
0.000
0.000
0.000
2.000
0.000
0.000
1.000
0.000
1.000
0.000
0.000
0.000
0.000
0.000
0.000
0.000
0.000
0.000
0.000
0.000
0.000
0.000
0.000
1.000
1.000
0.000
1.000
1.000
0.000
0.000
0.000
0.000
1.000
0.000
0.000
0.000
0.000
0.000
0.000
1.000
0.000
0.000
0.000
0.000
0.000
0.000
0.000
0.000
0.000
0.000
0.000
0.000
0.000
0.000
0.000
0.000
0.000
0.000
0.000
0.000
0.000
0.000
0.000
0.000
0.000
0.000
1.000
0.000
0.000
0.000
0.000
0.000
1.000
0.000
0.000
0.000
0.000
1.000
0.000
0.000
0.000
0.000
0.000
0.000
1.000
0.000
0.000
0.000
0.000
0.000
0.000
0.000
0.000
0.000
0.000
0.000
0.000
1.000
0.000
1.000
0.000
0.000
0.000
0.000
0.000
0.000
1.000
0.000
0.000
0.000
0.000
0.000
1.000
0.000
0.000
0.000
0.000
0.000
0.000
0.000
0.000
0.000
0.000
0.000
0.000
0.000
0.000
0.000
0.000
0.000
0.000
0.000
0.000
0.000
0.000
0.000
0.000
0.000
0.000
0.000
0.000
0.000
0.000
0.000
0.000
0.000
0.000
0.000
0.000
0.000
0.000
0.000
0.000
0.000
0.000
0.000
0.000
0.000
0.000
0.000
0.000
0.000
0.000
0.000
0.000
0.000
0.000
0.000
0.000
0.000
0.000
0.000
0.000
0.000
0.000
0.000
0.000
0.000
0.000
0.000
0.000
0.000
0.000
0.000
0.000
0.000
0.000
0.000
0.000
0.000
1.000
0.000
0.000
0.000
1.000
0.000
0.000
0.000
0.000
0.000
0.000
0.000
0.000
0.000
0.000
0.000
0.000
0.000
0.000
0.000
0.000
0.000
0.000
0.000
0.000
0.000
0.000
0.000
0.000
0.000
0.000
0.000
0.000
0.000
0.000
0.000
0.000
0.000
0.000
0.000
0.000
0.000
0.000
0.000
0.000
0.000
#ENDOFDATA   :