File: data/SEM-data_2024/artifact_surfaces/P5-1566_artifact_002_analysis_mw_region/spectrum.emsa
#FORMAT      : EMSA/MAS Spectral Data File
#VERSION     : 1.0
#TITLE       : EDS Spectrum
#DATE        : 19-SEP-2024
#TIME        : 11:20
#OWNER       : Thermo Fisher Scientific Inc.
#NPOINTS     : 2048.
#NCOLUMNS    : 1.
#XUNITS      : eV
#YUNITS      : Counts
#DATATYPE    : Y
#XPERCHAN    : 9.933
#OFFSET      : -44.878
#XLABEL      : Energy
#YLABEL      : Counts
#SIGNALTYPE  : EDS
#BEAMKV      : 15.000
#AZIMANGLE-dg: 0.0
#ELEVANGLE-dg: 28.5
#LIVETIME    : 148.611
#REALTIME    : 174.961
#EDSDET      : SDUTW
##MNFWHM     : 126.3
##INSTRUMENT : MVE075582-10647-L
##SLOWTPEAK  : 0.000004000
##FASTTPEAK  : 0.000000100
##OPTICALWD  : 0.005500000
##WD         : 0.0141185
##SDDAREA    : 0.000025
##CCORR      : 260.454
##SCORR      : LIN
#SPECTRUM    : Spectral Data Starts Here
0.000
0.000
0.000
0.000
0.000
0.000
0.000
106.000
65.000
48.000
46.000
61.000
55.000
119.000
274.000
614.000
768.000
572.000
212.000
100.000
163.000
219.000
238.000
249.000
328.000
810.000
2362.000
5928.000
9387.000
7318.000
2790.000
613.000
187.000
170.000
142.000
198.000
308.000
450.000
411.000
251.000
166.000
117.000
114.000
89.000
87.000
117.000
94.000
120.000
118.000
110.000
149.000
170.000
311.000
565.000
768.000
678.000
422.000
194.000
126.000
123.000
119.000
144.000
145.000
179.000
229.000
296.000
269.000
195.000
159.000
151.000
161.000
134.000
161.000
240.000
556.000
1153.000
1740.000
1879.000
1303.000
724.000
352.000
212.000
158.000
160.000
205.000
332.000
980.000
2475.000
5186.000
7072.000
6803.000
4692.000
2303.000
981.000
494.000
309.000
203.000
143.000
118.000
100.000
87.000
100.000
116.000
153.000
134.000
112.000
76.000
81.000
79.000
73.000
82.000
71.000
69.000
65.000
64.000
98.000
90.000
77.000
89.000
95.000
81.000
80.000
68.000
68.000
64.000
64.000
79.000
59.000
75.000
67.000
66.000
78.000
61.000
91.000
112.000
85.000
86.000
81.000
68.000
73.000
53.000
60.000
72.000
65.000
67.000
69.000
72.000
56.000
60.000
67.000
65.000
68.000
57.000
55.000
71.000
52.000
66.000
56.000
54.000
73.000
65.000
46.000
62.000
65.000
83.000
86.000
127.000
176.000
232.000
265.000
235.000
152.000
121.000
74.000
67.000
65.000
56.000
49.000
50.000
57.000
80.000
74.000
74.000
79.000
85.000
90.000
101.000
123.000
128.000
106.000
94.000
71.000
47.000
41.000
36.000
51.000
45.000
34.000
38.000
42.000
52.000
43.000
42.000
44.000
53.000
55.000
43.000
50.000
44.000
51.000
54.000
31.000
57.000
54.000
35.000
44.000
29.000
45.000
45.000
31.000
37.000
23.000
40.000
41.000
29.000
41.000
44.000
56.000
74.000
60.000
68.000
65.000
46.000
48.000
41.000
42.000
32.000
29.000
35.000
33.000
29.000
29.000
34.000
25.000
37.000
25.000
27.000
32.000
34.000
34.000
33.000
42.000
32.000
34.000
29.000
34.000
21.000
27.000
32.000
32.000
31.000
34.000
35.000
19.000
35.000
16.000
26.000
28.000
25.000
30.000
31.000
32.000
27.000
31.000
35.000
28.000
25.000
35.000
31.000
31.000
34.000
31.000
18.000
20.000
23.000
29.000
25.000
30.000
28.000
21.000
24.000
38.000
20.000
23.000
22.000
24.000
29.000
25.000
26.000
24.000
32.000
18.000
24.000
18.000
16.000
25.000
31.000
26.000
24.000
26.000
21.000
20.000
28.000
26.000
22.000
24.000
25.000
19.000
37.000
61.000
79.000
116.000
175.000
219.000
223.000
204.000
181.000
125.000
95.000
65.000
42.000
27.000
26.000
29.000
11.000
16.000
14.000
11.000
19.000
23.000
19.000
24.000
18.000
14.000
20.000
26.000
18.000
17.000
24.000
21.000
16.000
17.000
18.000
37.000
38.000
39.000
32.000
27.000
50.000
41.000
31.000
26.000
22.000
29.000
21.000
19.000
12.000
20.000
12.000
13.000
10.000
12.000
14.000
16.000
18.000
9.000
21.000
15.000
10.000
22.000
16.000
14.000
16.000
12.000
16.000
10.000
9.000
19.000
12.000
11.000
13.000
13.000
12.000
12.000
6.000
10.000
13.000
16.000
17.000
13.000
16.000
18.000
15.000
14.000
18.000
14.000
11.000
14.000
9.000
14.000
7.000
14.000
9.000
16.000
6.000
8.000
9.000
10.000
9.000
8.000
11.000
18.000
9.000
10.000
9.000
10.000
9.000
9.000
6.000
12.000
16.000
15.000
11.000
13.000
11.000
16.000
9.000
15.000
12.000
13.000
11.000
13.000
14.000
18.000
3.000
15.000
10.000
11.000
8.000
14.000
8.000
11.000
9.000
8.000
4.000
13.000
7.000
12.000
7.000
8.000
9.000
15.000
15.000
10.000
9.000
14.000
11.000
8.000
6.000
7.000
10.000
7.000
11.000
15.000
7.000
5.000
9.000
7.000
7.000
9.000
5.000
6.000
3.000
8.000
12.000
14.000
10.000
10.000
9.000
4.000
10.000
6.000
7.000
6.000
7.000
8.000
10.000
9.000
7.000
8.000
10.000
11.000
6.000
13.000
6.000
5.000
4.000
10.000
7.000
5.000
6.000
3.000
6.000
8.000
7.000
6.000
7.000
7.000
7.000
1.000
10.000
7.000
8.000
11.000
2.000
7.000
5.000
5.000
7.000
5.000
3.000
6.000
6.000
4.000
4.000
5.000
3.000
5.000
1.000
4.000
6.000
7.000
6.000
2.000
5.000
3.000
6.000
4.000
3.000
5.000
3.000
4.000
9.000
3.000
4.000
4.000
2.000
4.000
4.000
5.000
3.000
1.000
5.000
6.000
5.000
3.000
6.000
3.000
4.000
3.000
4.000
2.000
4.000
5.000
4.000
5.000
3.000
6.000
6.000
1.000
4.000
2.000
1.000
5.000
3.000
5.000
2.000
3.000
2.000
4.000
2.000
3.000
6.000
6.000
4.000
0.000
0.000
3.000
4.000
3.000
7.000
2.000
2.000
3.000
0.000
5.000
4.000
1.000
2.000
4.000
3.000
1.000
2.000
6.000
3.000
4.000
3.000
1.000
5.000
1.000
1.000
1.000
0.000
1.000
2.000
3.000
4.000
2.000
1.000
2.000
2.000
0.000
2.000
3.000
0.000
2.000
0.000
3.000
2.000
1.000
2.000
2.000
1.000
2.000
3.000
1.000
3.000
1.000
3.000
1.000
1.000
1.000
5.000
1.000
1.000
0.000
1.000
1.000
2.000
4.000
3.000
1.000
0.000
3.000
0.000
1.000
0.000
1.000
2.000
2.000
0.000
1.000
0.000
0.000
0.000
2.000
1.000
0.000
0.000
1.000
1.000
0.000
4.000
1.000
2.000
1.000
1.000
0.000
3.000
0.000
0.000
0.000
1.000
0.000
1.000
1.000
0.000
2.000
0.000
1.000
1.000
0.000
0.000
0.000
0.000
3.000
2.000
1.000
0.000
1.000
0.000
0.000
0.000
1.000
0.000
0.000
0.000
0.000
0.000
0.000
2.000
0.000
1.000
0.000
0.000
0.000
0.000
1.000
0.000
0.000
0.000
0.000
0.000
0.000
0.000
0.000
0.000
1.000
0.000
0.000
0.000
0.000
1.000
0.000
0.000
0.000
0.000
0.000
0.000
0.000
0.000
0.000
0.000
0.000
0.000
0.000
0.000
0.000
0.000
0.000
0.000
0.000
0.000
0.000
0.000
0.000
0.000
0.000
0.000
0.000
0.000
0.000
0.000
0.000
0.000
0.000
0.000
0.000
0.000
0.000
0.000
0.000
0.000
0.000
0.000
0.000
0.000
0.000
0.000
0.000
0.000
0.000
0.000
0.000
0.000
0.000
0.000
0.000
0.000
0.000
0.000
0.000
0.000
0.000
0.000
0.000
0.000
0.000
0.000
0.000
0.000
0.000
0.000
0.000
0.000
0.000
0.000
0.000
0.000
0.000
0.000
0.000
0.000
0.000
0.000
0.000
0.000
0.000
0.000
0.000
0.000
0.000
0.000
0.000
0.000
0.000
0.000
0.000
0.000
0.000
0.000
0.000
0.000
0.000
0.000
0.000
0.000
0.000
0.000
0.000
0.000
0.000
0.000
0.000
0.000
0.000
0.000
0.000
0.000
0.000
0.000
0.000
0.000
0.000
0.000
0.000
0.000
0.000
0.000
0.000
0.000
0.000
0.000
0.000
0.000
0.000
0.000
0.000
0.000
0.000
0.000
0.000
0.000
0.000
0.000
0.000
0.000
0.000
0.000
0.000
0.000
0.000
0.000
0.000
0.000
0.000
0.000
0.000
0.000
0.000
0.000
0.000
0.000
0.000
0.000
0.000
0.000
0.000
0.000
0.000
0.000
0.000
0.000
0.000
0.000
0.000
0.000
0.000
0.000
0.000
0.000
0.000
0.000
0.000
0.000
0.000
0.000
0.000
0.000
0.000
0.000
0.000
0.000
0.000
0.000
0.000
0.000
0.000
0.000
0.000
0.000
0.000
0.000
0.000
0.000
0.000
0.000
0.000
0.000
0.000
0.000
0.000
0.000
0.000
0.000
0.000
0.000
0.000
0.000
0.000
0.000
0.000
0.000
0.000
0.000
0.000
0.000
0.000
0.000
0.000
0.000
0.000
0.000
0.000
0.000
0.000
0.000
0.000
0.000
0.000
0.000
0.000
0.000
0.000
0.000
0.000
0.000
0.000
0.000
0.000
0.000
0.000
0.000
0.000
0.000
0.000
0.000
0.000
0.000
0.000
0.000
0.000
0.000
0.000
0.000
0.000
0.000
0.000
0.000
0.000
0.000
0.000
0.000
0.000
0.000
0.000
0.000
0.000
0.000
0.000
0.000
0.000
0.000
0.000
0.000
#ENDOFDATA   :