File: data/SEM-data_2024/artifact_surfaces/P1-336_artifact_lw_analysis_1_region/spectrum.emsa
#FORMAT      : EMSA/MAS Spectral Data File
#VERSION     : 1.0
#TITLE       : EDS Spectrum
#DATE        : 19-SEP-2024
#TIME        : 11:20
#OWNER       : Thermo Fisher Scientific Inc.
#NPOINTS     : 2048.
#NCOLUMNS    : 1.
#XUNITS      : eV
#YUNITS      : Counts
#DATATYPE    : Y
#XPERCHAN    : 9.933
#OFFSET      : -44.878
#XLABEL      : Energy
#YLABEL      : Counts
#SIGNALTYPE  : EDS
#BEAMKV      : 15.000
#AZIMANGLE-dg: 0.0
#ELEVANGLE-dg: 28.5
#LIVETIME    : 29.741
#REALTIME    : 37.561
#EDSDET      : SDUTW
##MNFWHM     : 126.3
##INSTRUMENT : MVE075582-10647-L
##SLOWTPEAK  : 0.000004000
##FASTTPEAK  : 0.000000100
##OPTICALWD  : 0.005500000
##WD         : 0.007163208
##SDDAREA    : 0.000025
##CCORR      : 260.454
##SCORR      : LIN
#SPECTRUM    : Spectral Data Starts Here
0.000
0.000
0.000
0.000
0.000
0.000
0.000
66.000
45.000
40.000
44.000
36.000
47.000
68.000
166.000
364.000
466.000
318.000
154.000
99.000
143.000
190.000
212.000
205.000
310.000
722.000
2379.000
6135.000
9300.000
7382.000
2885.000
556.000
114.000
87.000
87.000
86.000
151.000
129.000
131.000
106.000
95.000
87.000
77.000
107.000
94.000
115.000
74.000
112.000
89.000
137.000
113.000
155.000
211.000
318.000
485.000
432.000
282.000
153.000
132.000
122.000
132.000
137.000
139.000
192.000
252.000
264.000
242.000
177.000
149.000
123.000
133.000
135.000
149.000
230.000
368.000
746.000
1071.000
1098.000
871.000
469.000
281.000
180.000
182.000
159.000
205.000
451.000
1248.000
3178.000
6738.000
9246.000
9092.000
6174.000
2904.000
1324.000
656.000
405.000
251.000
158.000
102.000
86.000
86.000
63.000
99.000
86.000
85.000
71.000
69.000
68.000
49.000
55.000
66.000
72.000
72.000
78.000
74.000
87.000
76.000
95.000
89.000
92.000
71.000
82.000
73.000
56.000
73.000
57.000
68.000
67.000
70.000
59.000
55.000
74.000
68.000
80.000
88.000
84.000
75.000
72.000
61.000
59.000
51.000
52.000
56.000
70.000
62.000
61.000
44.000
45.000
70.000
57.000
60.000
64.000
56.000
53.000
58.000
51.000
59.000
44.000
56.000
50.000
49.000
42.000
46.000
48.000
48.000
66.000
86.000
97.000
122.000
125.000
109.000
112.000
72.000
44.000
59.000
48.000
38.000
55.000
43.000
48.000
58.000
49.000
53.000
59.000
70.000
81.000
86.000
93.000
93.000
97.000
64.000
63.000
49.000
49.000
52.000
34.000
30.000
53.000
36.000
32.000
46.000
51.000
51.000
39.000
41.000
44.000
54.000
45.000
33.000
41.000
38.000
45.000
33.000
37.000
35.000
41.000
34.000
32.000
35.000
44.000
35.000
32.000
37.000
34.000
36.000
37.000
36.000
35.000
46.000
30.000
53.000
43.000
27.000
29.000
26.000
32.000
30.000
28.000
36.000
40.000
23.000
19.000
37.000
43.000
41.000
35.000
29.000
32.000
40.000
29.000
38.000
26.000
35.000
39.000
39.000
40.000
33.000
22.000
33.000
32.000
28.000
21.000
35.000
31.000
30.000
31.000
20.000
23.000
23.000
24.000
31.000
32.000
21.000
17.000
24.000
25.000
25.000
25.000
17.000
21.000
27.000
20.000
22.000
27.000
27.000
24.000
25.000
23.000
18.000
25.000
20.000
20.000
26.000
25.000
30.000
22.000
29.000
21.000
25.000
24.000
30.000
28.000
39.000
24.000
27.000
23.000
19.000
26.000
21.000
20.000
22.000
23.000
12.000
18.000
24.000
22.000
27.000
26.000
40.000
32.000
47.000
45.000
65.000
73.000
92.000
97.000
51.000
52.000
37.000
37.000
28.000
22.000
19.000
17.000
24.000
24.000
8.000
15.000
16.000
20.000
14.000
22.000
20.000
20.000
18.000
20.000
16.000
12.000
16.000
26.000
11.000
17.000
19.000
18.000
15.000
27.000
19.000
22.000
22.000
23.000
23.000
16.000
13.000
12.000
17.000
18.000
16.000
10.000
13.000
13.000
13.000
12.000
13.000
16.000
14.000
19.000
13.000
13.000
16.000
13.000
10.000
9.000
9.000
9.000
16.000
14.000
15.000
15.000
11.000
5.000
18.000
11.000
13.000
18.000
12.000
17.000
17.000
19.000
13.000
11.000
9.000
4.000
12.000
16.000
12.000
18.000
14.000
13.000
17.000
9.000
15.000
9.000
14.000
15.000
18.000
12.000
13.000
16.000
13.000
8.000
5.000
10.000
10.000
5.000
6.000
15.000
11.000
7.000
14.000
10.000
8.000
15.000
12.000
17.000
7.000
8.000
12.000
12.000
8.000
9.000
10.000
7.000
10.000
7.000
9.000
6.000
5.000
10.000
11.000
10.000
9.000
10.000
11.000
8.000
11.000
9.000
10.000
15.000
9.000
6.000
7.000
7.000
11.000
8.000
9.000
11.000
10.000
8.000
7.000
3.000
8.000
11.000
7.000
12.000
9.000
6.000
11.000
7.000
7.000
10.000
10.000
7.000
9.000
4.000
7.000
4.000
6.000
8.000
5.000
8.000
5.000
6.000
7.000
1.000
8.000
4.000
6.000
6.000
2.000
3.000
2.000
7.000
7.000
11.000
11.000
7.000
9.000
7.000
10.000
6.000
8.000
3.000
6.000
7.000
5.000
8.000
8.000
4.000
9.000
6.000
10.000
3.000
6.000
6.000
7.000
8.000
11.000
9.000
3.000
3.000
6.000
4.000
3.000
5.000
2.000
1.000
5.000
3.000
8.000
3.000
2.000
4.000
5.000
7.000
10.000
7.000
2.000
4.000
3.000
4.000
4.000
7.000
2.000
1.000
5.000
4.000
2.000
2.000
6.000
6.000
6.000
2.000
4.000
4.000
4.000
3.000
1.000
5.000
2.000
4.000
4.000
2.000
1.000
2.000
4.000
4.000
6.000
4.000
3.000
4.000
1.000
4.000
3.000
6.000
3.000
7.000
7.000
4.000
6.000
1.000
4.000
3.000
3.000
3.000
3.000
5.000
3.000
2.000
0.000
4.000
4.000
2.000
4.000
2.000
1.000
1.000
7.000
1.000
2.000
5.000
0.000
0.000
5.000
1.000
2.000
2.000
6.000
2.000
2.000
5.000
0.000
4.000
2.000
1.000
2.000
1.000
3.000
3.000
2.000
2.000
3.000
0.000
1.000
4.000
2.000
3.000
1.000
3.000
1.000
0.000
5.000
4.000
2.000
0.000
5.000
2.000
2.000
2.000
3.000
1.000
1.000
1.000
2.000
2.000
1.000
2.000
2.000
0.000
1.000
1.000
4.000
0.000
1.000
3.000
0.000
2.000
2.000
4.000
0.000
2.000
0.000
1.000
3.000
2.000
1.000
0.000
2.000
3.000
0.000
1.000
2.000
2.000
1.000
2.000
0.000
3.000
2.000
0.000
0.000
0.000
0.000
2.000
2.000
0.000
1.000
0.000
2.000
0.000
1.000
1.000
1.000
0.000
0.000
0.000
1.000
0.000
4.000
0.000
0.000
1.000
1.000
1.000
1.000
0.000
1.000
2.000
2.000
1.000
1.000
1.000
0.000
0.000
2.000
0.000
1.000
1.000
0.000
0.000
0.000
1.000
0.000
0.000
0.000
0.000
0.000
0.000
1.000
0.000
0.000
1.000
0.000
0.000
0.000
0.000
0.000
0.000
0.000
0.000
0.000
0.000
0.000
1.000
0.000
0.000
0.000
0.000
0.000
0.000
0.000
0.000
0.000
0.000
0.000
0.000
0.000
0.000
0.000
0.000
0.000
0.000
0.000
0.000
0.000
0.000
0.000
0.000
0.000
0.000
0.000
0.000
0.000
0.000
0.000
0.000
0.000
0.000
0.000
0.000
0.000
0.000
0.000
0.000
0.000
0.000
0.000
0.000
0.000
0.000
0.000
0.000
0.000
0.000
0.000
0.000
0.000
0.000
0.000
0.000
0.000
0.000
0.000
0.000
0.000
0.000
0.000
0.000
0.000
0.000
0.000
0.000
0.000
0.000
0.000
0.000
0.000
0.000
0.000
0.000
0.000
0.000
0.000
0.000
0.000
0.000
0.000
0.000
0.000
0.000
0.000
0.000
0.000
0.000
0.000
0.000
0.000
0.000
0.000
0.000
0.000
0.000
0.000
0.000
0.000
0.000
0.000
0.000
0.000
0.000
0.000
0.000
0.000
0.000
0.000
0.000
0.000
0.000
0.000
0.000
0.000
0.000
0.000
0.000
0.000
0.000
0.000
0.000
0.000
0.000
0.000
0.000
0.000
0.000
0.000
0.000
0.000
0.000
0.000
0.000
0.000
0.000
0.000
0.000
0.000
0.000
0.000
0.000
0.000
0.000
0.000
0.000
0.000
0.000
0.000
0.000
0.000
0.000
0.000
0.000
0.000
0.000
0.000
0.000
0.000
0.000
0.000
0.000
0.000
0.000
0.000
0.000
0.000
0.000
0.000
0.000
0.000
0.000
0.000
0.000
0.000
0.000
0.000
0.000
0.000
0.000
0.000
0.000
0.000
0.000
0.000
0.000
0.000
0.000
0.000
0.000
0.000
0.000
0.000
0.000
0.000
0.000
0.000
0.000
0.000
0.000
0.000
0.000
0.000
0.000
0.000
0.000
0.000
0.000
0.000
0.000
0.000
0.000
0.000
0.000
0.000
0.000
0.000
0.000
0.000
0.000
0.000
0.000
0.000
0.000
0.000
0.000
0.000
0.000
0.000
0.000
0.000
0.000
0.000
0.000
0.000
0.000
0.000
0.000
0.000
0.000
0.000
0.000
0.000
0.000
0.000
0.000
0.000
0.000
0.000
0.000
0.000
0.000
0.000
0.000
0.000
0.000
0.000
0.000
0.000
0.000
0.000
0.000
0.000
0.000
0.000
0.000
0.000
0.000
0.000
0.000
0.000
#ENDOFDATA   :