File: data/SEM-data_2024/artifact_surfaces/P1-83_artifact_001_analysis_mw_region/spectrum.emsa
#FORMAT      : EMSA/MAS Spectral Data File
#VERSION     : 1.0
#TITLE       : EDS Spectrum
#DATE        : 19-SEP-2024
#TIME        : 11:20
#OWNER       : Thermo Fisher Scientific Inc.
#NPOINTS     : 2048.
#NCOLUMNS    : 1.
#XUNITS      : eV
#YUNITS      : Counts
#DATATYPE    : Y
#XPERCHAN    : 9.933
#OFFSET      : -44.878
#XLABEL      : Energy
#YLABEL      : Counts
#SIGNALTYPE  : EDS
#BEAMKV      : 15.000
#AZIMANGLE-dg: 0.0
#ELEVANGLE-dg: 28.5
#LIVETIME    : 29.870
#REALTIME    : 37.360
#EDSDET      : SDUTW
##MNFWHM     : 126.3
##INSTRUMENT : MVE075582-10647-L
##SLOWTPEAK  : 0.000004000
##FASTTPEAK  : 0.000000100
##OPTICALWD  : 0.005500000
##WD         : 0.009810498
##SDDAREA    : 0.000025
##CCORR      : 260.454
##SCORR      : LIN
#SPECTRUM    : Spectral Data Starts Here
0.000
0.000
0.000
0.000
0.000
0.000
0.000
80.000
62.000
47.000
51.000
67.000
52.000
104.000
251.000
567.000
689.000
554.000
200.000
137.000
154.000
197.000
219.000
211.000
307.000
910.000
2528.000
6513.000
9815.000
7838.000
2986.000
590.000
168.000
140.000
140.000
177.000
248.000
304.000
289.000
202.000
140.000
124.000
106.000
114.000
123.000
117.000
126.000
138.000
131.000
122.000
144.000
217.000
427.000
825.000
1165.000
964.000
540.000
224.000
139.000
108.000
123.000
148.000
144.000
181.000
183.000
268.000
201.000
166.000
146.000
154.000
134.000
141.000
142.000
233.000
502.000
909.000
1450.000
1650.000
1185.000
644.000
334.000
181.000
179.000
174.000
206.000
378.000
1012.000
2784.000
5558.000
7744.000
7302.000
4983.000
2408.000
996.000
547.000
358.000
217.000
130.000
97.000
67.000
78.000
72.000
100.000
95.000
96.000
93.000
66.000
60.000
86.000
69.000
66.000
67.000
73.000
61.000
85.000
77.000
79.000
77.000
103.000
93.000
65.000
78.000
73.000
89.000
78.000
73.000
70.000
67.000
60.000
62.000
80.000
76.000
82.000
93.000
97.000
84.000
77.000
51.000
59.000
61.000
36.000
61.000
52.000
50.000
53.000
55.000
58.000
43.000
46.000
43.000
45.000
66.000
50.000
47.000
68.000
70.000
37.000
40.000
45.000
50.000
43.000
48.000
43.000
44.000
54.000
63.000
57.000
77.000
115.000
95.000
91.000
74.000
61.000
45.000
36.000
53.000
47.000
41.000
52.000
50.000
39.000
42.000
67.000
38.000
52.000
40.000
66.000
64.000
62.000
54.000
49.000
50.000
38.000
42.000
50.000
37.000
44.000
33.000
46.000
40.000
36.000
38.000
41.000
38.000
49.000
46.000
39.000
37.000
37.000
36.000
34.000
27.000
45.000
43.000
43.000
37.000
26.000
33.000
23.000
42.000
34.000
31.000
22.000
31.000
38.000
39.000
37.000
37.000
55.000
38.000
53.000
30.000
40.000
28.000
40.000
28.000
30.000
28.000
22.000
37.000
33.000
18.000
37.000
39.000
29.000
30.000
38.000
26.000
36.000
30.000
34.000
34.000
34.000
22.000
23.000
25.000
18.000
21.000
28.000
27.000
19.000
25.000
31.000
28.000
18.000
30.000
29.000
22.000
30.000
25.000
21.000
29.000
15.000
22.000
21.000
26.000
20.000
26.000
27.000
24.000
27.000
28.000
31.000
18.000
19.000
13.000
30.000
16.000
33.000
22.000
22.000
17.000
22.000
22.000
24.000
24.000
32.000
40.000
24.000
52.000
39.000
36.000
20.000
20.000
24.000
20.000
28.000
21.000
18.000
20.000
22.000
26.000
13.000
19.000
22.000
17.000
32.000
26.000
36.000
41.000
48.000
84.000
100.000
120.000
138.000
135.000
128.000
90.000
77.000
53.000
28.000
23.000
21.000
16.000
11.000
14.000
16.000
11.000
23.000
18.000
21.000
15.000
21.000
17.000
13.000
14.000
20.000
18.000
16.000
24.000
19.000
16.000
16.000
16.000
25.000
29.000
32.000
30.000
27.000
30.000
32.000
13.000
15.000
12.000
18.000
15.000
15.000
18.000
13.000
11.000
15.000
12.000
16.000
10.000
19.000
12.000
10.000
14.000
20.000
7.000
14.000
12.000
10.000
20.000
5.000
14.000
15.000
17.000
10.000
11.000
20.000
16.000
9.000
8.000
4.000
12.000
6.000
5.000
9.000
14.000
11.000
12.000
15.000
11.000
13.000
11.000
10.000
10.000
14.000
12.000
3.000
15.000
12.000
11.000
16.000
11.000
9.000
11.000
8.000
11.000
11.000
7.000
14.000
12.000
8.000
11.000
14.000
11.000
15.000
7.000
12.000
9.000
8.000
14.000
14.000
11.000
13.000
13.000
12.000
7.000
8.000
15.000
8.000
8.000
12.000
12.000
14.000
7.000
8.000
8.000
9.000
8.000
12.000
9.000
5.000
11.000
11.000
8.000
8.000
7.000
5.000
14.000
7.000
7.000
2.000
4.000
9.000
13.000
7.000
11.000
9.000
9.000
15.000
9.000
7.000
11.000
5.000
9.000
5.000
3.000
9.000
5.000
11.000
2.000
5.000
8.000
9.000
10.000
4.000
7.000
3.000
6.000
8.000
6.000
9.000
4.000
4.000
6.000
6.000
7.000
3.000
4.000
7.000
3.000
10.000
9.000
5.000
5.000
5.000
6.000
2.000
9.000
7.000
4.000
8.000
5.000
7.000
3.000
5.000
2.000
3.000
4.000
5.000
6.000
4.000
3.000
3.000
6.000
5.000
6.000
9.000
5.000
4.000
4.000
5.000
8.000
5.000
1.000
5.000
2.000
4.000
4.000
1.000
5.000
5.000
3.000
6.000
8.000
2.000
5.000
5.000
5.000
6.000
5.000
3.000
3.000
7.000
5.000
4.000
3.000
0.000
6.000
3.000
4.000
4.000
6.000
6.000
2.000
2.000
5.000
5.000
2.000
4.000
5.000
4.000
1.000
4.000
2.000
2.000
4.000
3.000
2.000
1.000
1.000
3.000
3.000
4.000
3.000
2.000
2.000
6.000
6.000
1.000
1.000
4.000
1.000
2.000
1.000
1.000
5.000
3.000
3.000
0.000
1.000
3.000
2.000
5.000
4.000
0.000
0.000
1.000
3.000
4.000
4.000
4.000
3.000
1.000
2.000
3.000
2.000
1.000
4.000
1.000
3.000
3.000
0.000
2.000
1.000
4.000
1.000
0.000
1.000
3.000
1.000
3.000
2.000
3.000
1.000
1.000
3.000
0.000
5.000
2.000
2.000
1.000
0.000
2.000
5.000
4.000
0.000
3.000
3.000
1.000
1.000
2.000
4.000
2.000
2.000
1.000
1.000
1.000
0.000
3.000
0.000
0.000
4.000
2.000
1.000
0.000
0.000
0.000
1.000
1.000
0.000
1.000
2.000
1.000
1.000
1.000
1.000
3.000
2.000
3.000
0.000
1.000
2.000
1.000
1.000
0.000
0.000
1.000
0.000
0.000
0.000
0.000
0.000
1.000
2.000
1.000
3.000
2.000
0.000
0.000
0.000
1.000
0.000
1.000
0.000
0.000
1.000
0.000
0.000
0.000
0.000
2.000
3.000
0.000
1.000
0.000
0.000
1.000
0.000
1.000
0.000
1.000
0.000
1.000
1.000
0.000
0.000
0.000
2.000
0.000
0.000
0.000
0.000
1.000
0.000
0.000
0.000
0.000
0.000
0.000
0.000
1.000
0.000
0.000
0.000
0.000
0.000
0.000
0.000
0.000
0.000
0.000
0.000
0.000
0.000
0.000
0.000
0.000
0.000
0.000
0.000
0.000
0.000
0.000
0.000
0.000
0.000
0.000
0.000
0.000
0.000
0.000
0.000
0.000
0.000
0.000
0.000
0.000
0.000
0.000
0.000
0.000
0.000
0.000
0.000
0.000
0.000
0.000
0.000
0.000
0.000
0.000
0.000
0.000
0.000
0.000
0.000
0.000
0.000
0.000
0.000
0.000
0.000
0.000
0.000
0.000
0.000
0.000
0.000
0.000
0.000
0.000
0.000
0.000
0.000
0.000
0.000
0.000
0.000
0.000
0.000
0.000
0.000
0.000
0.000
0.000
0.000
0.000
0.000
0.000
0.000
0.000
0.000
0.000
0.000
0.000
0.000
0.000
0.000
0.000
0.000
0.000
0.000
0.000
0.000
0.000
0.000
0.000
0.000
0.000
0.000
0.000
0.000
0.000
0.000
0.000
0.000
0.000
0.000
0.000
0.000
0.000
0.000
0.000
0.000
0.000
0.000
0.000
0.000
0.000
0.000
0.000
0.000
0.000
0.000
0.000
0.000
0.000
0.000
0.000
0.000
0.000
0.000
0.000
0.000
0.000
0.000
0.000
0.000
0.000
0.000
0.000
0.000
0.000
0.000
0.000
0.000
0.000
0.000
0.000
0.000
0.000
0.000
0.000
0.000
0.000
0.000
0.000
0.000
0.000
0.000
0.000
0.000
0.000
0.000
0.000
0.000
0.000
0.000
0.000
0.000
0.000
0.000
0.000
0.000
0.000
0.000
0.000
0.000
0.000
0.000
0.000
0.000
0.000
0.000
0.000
0.000
0.000
0.000
0.000
0.000
0.000
0.000
0.000
0.000
0.000
0.000
0.000
0.000
0.000
0.000
0.000
0.000
0.000
0.000
0.000
0.000
0.000
0.000
0.000
0.000
0.000
0.000
0.000
0.000
0.000
0.000
0.000
0.000
0.000
0.000
0.000
0.000
0.000
0.000
0.000
0.000
0.000
0.000
0.000
0.000
0.000
0.000
0.000
0.000
0.000
0.000
0.000
0.000
0.000
0.000
0.000
0.000
0.000
0.000
0.000
0.000
0.000
0.000
0.000
0.000
0.000
0.000
0.000
0.000
0.000
0.000
0.000
0.000
0.000
0.000
0.000
0.000
0.000
0.000
0.000
0.000
0.000
0.000
0.000
0.000
0.000
#ENDOFDATA   :