File: data/SEM-data_2024/cross_sections/P1-231_medial_analysis_1_map/spectrum.emsa
#FORMAT      : EMSA/MAS Spectral Data File
#VERSION     : 1.0
#TITLE       : EDS Spectrum
#DATE        : 19-SEP-2024
#TIME        : 14:36
#OWNER       : Thermo Fisher Scientific Inc.
#NPOINTS     : 2048.
#NCOLUMNS    : 1.
#XUNITS      : eV
#YUNITS      : Counts
#DATATYPE    : Y
#XPERCHAN    : 9.903
#OFFSET      : -56.900
#XLABEL      : Energy
#YLABEL      : Counts
#SIGNALTYPE  : EDS
#BEAMKV      : 15.000
#AZIMANGLE-dg: 0.0
#ELEVANGLE-dg: 28.5
#LIVETIME    : 113.806
#REALTIME    : 122.808
#EDSDET      : SDUTW
##MNFWHM     : 129.6
##INSTRUMENT : MVE075582-10647-L
##SLOWTPEAK  : 0.000001000
##FASTTPEAK  : 0.000000100
##OPTICALWD  : 0.005500000
##WD         : 0.005183736
##SDDAREA    : 0.000025
##CCORR      : 260.454
##SCORR      : LIN
#SPECTRUM    : Spectral Data Starts Here
0.000
0.000
0.000
0.000
0.000
0.000
0.000
0.000
0.000
0.000
0.000
0.000
0.000
92.000
601.000
1331.000
2408.000
3194.000
2471.000
1410.000
1006.000
1127.000
1318.000
1597.000
2038.000
3875.000
10298.000
28918.000
61161.000
81803.000
65006.000
29855.000
8263.000
2040.000
1069.000
1053.000
1148.000
1309.000
1331.000
1339.000
1316.000
1286.000
1277.000
1237.000
1367.000
1336.000
1381.000
1509.000
1519.000
1735.000
1859.000
2182.000
3062.000
5746.000
9484.000
11794.000
10605.000
6707.000
3601.000
2246.000
1884.000
1807.000
1835.000
2056.000
2529.000
2956.000
3201.000
2960.000
2688.000
2430.000
2359.000
2547.000
2957.000
4622.000
9977.000
24328.000
49492.000
72994.000
75812.000
57904.000
32578.000
14824.000
6670.000
3811.000
2968.000
3374.000
6575.000
17344.000
41405.000
77577.000
105583.000
105723.000
78772.000
43753.000
20451.000
9903.000
5632.000
3455.000
2096.000
1346.000
1080.000
1040.000
953.000
1069.000
1109.000
1084.000
967.000
962.000
936.000
966.000
902.000
952.000
995.000
994.000
1049.000
1239.000
1289.000
1350.000
1294.000
1338.000
1177.000
1049.000
1031.000
944.000
911.000
908.000
939.000
939.000
895.000
972.000
894.000
932.000
952.000
1000.000
908.000
928.000
892.000
976.000
907.000
902.000
979.000
907.000
987.000
1003.000
948.000
909.000
888.000
911.000
932.000
945.000
958.000
1014.000
1039.000
1122.000
1074.000
1015.000
883.000
892.000
856.000
896.000
822.000
870.000
889.000
839.000
877.000
907.000
957.000
979.000
987.000
935.000
995.000
1004.000
952.000
884.000
859.000
846.000
829.000
881.000
881.000
942.000
858.000
877.000
842.000
835.000
983.000
1026.000
1314.000
1715.000
2070.000
2263.000
2123.000
1785.000
1401.000
1037.000
850.000
768.000
760.000
714.000
730.000
656.000
753.000
716.000
728.000
745.000
837.000
852.000
821.000
794.000
770.000
733.000
677.000
648.000
666.000
657.000
597.000
631.000
642.000
649.000
616.000
602.000
582.000
621.000
618.000
633.000
586.000
626.000
620.000
628.000
748.000
761.000
765.000
768.000
682.000
633.000
619.000
609.000
558.000
567.000
568.000
528.000
585.000
559.000
542.000
555.000
538.000
535.000
567.000
553.000
534.000
568.000
524.000
527.000
558.000
542.000
580.000
537.000
527.000
497.000
548.000
497.000
518.000
480.000
479.000
489.000
522.000
489.000
512.000
466.000
518.000
505.000
454.000
490.000
461.000
501.000
504.000
466.000
464.000
439.000
468.000
441.000
455.000
456.000
449.000
425.000
482.000
471.000
464.000
429.000
482.000
418.000
408.000
407.000
421.000
483.000
407.000
408.000
458.000
443.000
432.000
444.000
438.000
415.000
507.000
402.000
430.000
390.000
392.000
371.000
393.000
355.000
383.000
379.000
390.000
388.000
383.000
362.000
374.000
363.000
361.000
400.000
448.000
476.000
534.000
709.000
792.000
866.000
925.000
884.000
685.000
619.000
562.000
452.000
411.000
413.000
335.000
309.000
336.000
316.000
328.000
328.000
295.000
321.000
335.000
325.000
329.000
335.000
292.000
320.000
310.000
339.000
309.000
313.000
282.000
331.000
362.000
326.000
335.000
339.000
342.000
367.000
379.000
321.000
337.000
292.000
318.000
264.000
273.000
260.000
260.000
254.000
288.000
267.000
300.000
285.000
267.000
267.000
269.000
277.000
248.000
244.000
244.000
244.000
258.000
256.000
254.000
249.000
255.000
228.000
244.000
270.000
247.000
234.000
232.000
238.000
226.000
232.000
244.000
233.000
202.000
234.000
202.000
233.000
229.000
221.000
234.000
247.000
214.000
229.000
210.000
236.000
231.000
217.000
221.000
222.000
204.000
219.000
215.000
208.000
188.000
189.000
206.000
211.000
176.000
179.000
182.000
198.000
202.000
217.000
163.000
150.000
171.000
205.000
188.000
205.000
191.000
212.000
205.000
164.000
184.000
173.000
177.000
199.000
192.000
182.000
171.000
179.000
152.000
163.000
155.000
154.000
172.000
153.000
164.000
159.000
155.000
165.000
181.000
162.000
167.000
152.000
152.000
157.000
149.000
181.000
151.000
171.000
159.000
154.000
140.000
167.000
150.000
154.000
142.000
148.000
152.000
151.000
146.000
154.000
140.000
158.000
121.000
131.000
133.000
130.000
151.000
139.000
123.000
140.000
129.000
134.000
132.000
133.000
120.000
129.000
138.000
135.000
121.000
152.000
139.000
125.000
142.000
147.000
135.000
115.000
142.000
133.000
111.000
117.000
123.000
129.000
137.000
111.000
109.000
118.000
108.000
101.000
127.000
111.000
104.000
93.000
109.000
114.000
91.000
104.000
104.000
104.000
109.000
119.000
112.000
95.000
94.000
106.000
91.000
88.000
85.000
95.000
83.000
90.000
96.000
88.000
116.000
102.000
100.000
97.000
92.000
98.000
92.000
101.000
109.000
78.000
93.000
89.000
86.000
80.000
81.000
87.000
81.000
82.000
84.000
89.000
83.000
89.000
75.000
78.000
74.000
97.000
75.000
70.000
75.000
64.000
71.000
86.000
76.000
77.000
75.000
77.000
64.000
63.000
52.000
64.000
70.000
60.000
69.000
71.000
53.000
61.000
59.000
75.000
53.000
61.000
67.000
59.000
53.000
59.000
62.000
50.000
47.000
57.000
43.000
60.000
45.000
52.000
44.000
59.000
52.000
56.000
57.000
56.000
52.000
60.000
43.000
50.000
49.000
48.000
56.000
37.000
47.000
53.000
34.000
52.000
50.000
48.000
53.000
44.000
48.000
49.000
54.000
46.000
37.000
44.000
38.000
36.000
37.000
46.000
45.000
48.000
33.000
41.000
34.000
37.000
35.000
38.000
34.000
37.000
36.000
34.000
38.000
31.000
28.000
35.000
30.000
29.000
29.000
26.000
26.000
20.000
17.000
31.000
28.000
25.000
25.000
30.000
24.000
30.000
27.000
36.000
27.000
18.000
32.000
23.000
21.000
24.000
28.000
17.000
15.000
23.000
19.000
26.000
11.000
15.000
18.000
22.000
21.000
18.000
15.000
19.000
12.000
11.000
12.000
25.000
14.000
17.000
11.000
6.000
15.000
16.000
12.000
13.000
13.000
15.000
16.000
15.000
11.000
11.000
16.000
9.000
12.000
8.000
14.000
14.000
11.000
6.000
13.000
7.000
7.000
7.000
8.000
6.000
9.000
10.000
10.000
9.000
7.000
4.000
7.000
5.000
4.000
7.000
4.000
3.000
5.000
3.000
2.000
3.000
1.000
7.000
4.000
2.000
4.000
0.000
0.000
1.000
1.000
1.000
2.000
0.000
0.000
0.000
3.000
2.000
1.000
2.000
0.000
0.000
1.000
1.000
4.000
0.000
1.000
1.000
0.000
0.000
0.000
0.000
0.000
2.000
0.000
1.000
0.000
0.000
0.000
1.000
1.000
0.000
0.000
0.000
0.000
0.000
0.000
0.000
0.000
0.000
0.000
0.000
0.000
0.000
0.000
0.000
0.000
0.000
0.000
0.000
0.000
0.000
0.000
0.000
0.000
0.000
0.000
0.000
0.000
1.000
0.000
0.000
0.000
0.000
0.000
0.000
0.000
0.000
1.000
0.000
0.000
0.000
0.000
0.000
0.000
0.000
0.000
0.000
0.000
0.000
0.000
0.000
0.000
0.000
0.000
0.000
0.000
1.000
1.000
0.000
0.000
0.000
0.000
0.000
0.000
0.000
0.000
0.000
0.000
0.000
0.000
0.000
0.000
0.000
0.000
0.000
0.000
0.000
0.000
0.000
0.000
0.000
0.000
0.000
0.000
0.000
0.000
0.000
0.000
0.000
0.000
0.000
0.000
1.000
0.000
0.000
0.000
0.000
0.000
0.000
0.000
0.000
0.000
0.000
0.000
0.000
0.000
0.000
0.000
0.000
0.000
0.000
0.000
0.000
0.000
0.000
0.000
0.000
0.000
1.000
0.000
0.000
0.000
0.000
0.000
0.000
0.000
0.000
0.000
0.000
0.000
0.000
0.000
0.000
0.000
0.000
0.000
0.000
0.000
0.000
0.000
0.000
0.000
0.000
0.000
0.000
0.000
0.000
0.000
0.000
0.000
0.000
0.000
0.000
0.000
0.000
0.000
0.000
0.000
0.000
0.000
0.000
0.000
0.000
0.000
0.000
1.000
0.000
0.000
0.000
0.000
0.000
0.000
1.000
0.000
0.000
0.000
0.000
0.000
0.000
0.000
0.000
0.000
0.000
0.000
0.000
0.000
0.000
0.000
0.000
0.000
0.000
0.000
0.000
0.000
0.000
0.000
0.000
0.000
0.000
0.000
0.000
0.000
0.000
0.000
0.000
0.000
0.000
0.000
0.000
0.000
0.000
0.000
0.000
0.000
0.000
0.000
0.000
0.000
0.000
0.000
0.000
0.000
0.000
0.000
0.000
0.000
0.000
0.000
0.000
0.000
0.000
0.000
0.000
0.000
1.000
0.000
0.000
0.000
0.000
0.000
0.000
0.000
0.000
0.000
0.000
0.000
0.000
0.000
0.000
0.000
0.000
0.000
#ENDOFDATA   :