File: data/SEM-data_2024/cross_sections/P2-761_medial_analysis_1_map/spectrum.emsa
#FORMAT      : EMSA/MAS Spectral Data File
#VERSION     : 1.0
#TITLE       : EDS Spectrum
#DATE        : 19-SEP-2024
#TIME        : 14:36
#OWNER       : Thermo Fisher Scientific Inc.
#NPOINTS     : 2048.
#NCOLUMNS    : 1.
#XUNITS      : eV
#YUNITS      : Counts
#DATATYPE    : Y
#XPERCHAN    : 9.903
#OFFSET      : -56.900
#XLABEL      : Energy
#YLABEL      : Counts
#SIGNALTYPE  : EDS
#BEAMKV      : 15.000
#AZIMANGLE-dg: 0.0
#ELEVANGLE-dg: 28.5
#LIVETIME    : 100.399
#REALTIME    : 107.596
#EDSDET      : SDUTW
##MNFWHM     : 129.6
##INSTRUMENT : MVE075582-10647-L
##SLOWTPEAK  : 0.000001000
##FASTTPEAK  : 0.000000100
##OPTICALWD  : 0.005500000
##WD         : 0.006714096
##SDDAREA    : 0.000025
##CCORR      : 260.454
##SCORR      : LIN
#SPECTRUM    : Spectral Data Starts Here
0.000
0.000
0.000
0.000
0.000
0.000
0.000
0.000
0.000
0.000
0.000
0.000
0.000
167.000
1555.000
4290.000
8536.000
11643.000
8144.000
3430.000
1509.000
1421.000
1759.000
2063.000
2446.000
4382.000
12076.000
34128.000
71607.000
95536.000
75856.000
34543.000
9491.000
2109.000
1036.000
988.000
1133.000
1206.000
1328.000
1309.000
1321.000
1200.000
1228.000
1245.000
1234.000
1271.000
1240.000
1421.000
1434.000
1621.000
1785.000
2299.000
3923.000
7872.000
13873.000
17773.000
15453.000
9528.000
4684.000
2329.000
1785.000
1717.000
1729.000
1845.000
1997.000
2237.000
2314.000
2255.000
2128.000
1974.000
2060.000
2153.000
2161.000
2850.000
4616.000
9606.000
18057.000
26036.000
27919.000
21613.000
12997.000
6803.000
4129.000
3153.000
3044.000
3710.000
7621.000
20310.000
48939.000
90850.000
124115.000
124813.000
91837.000
51363.000
24164.000
11347.000
6746.000
4165.000
2498.000
1641.000
1320.000
1227.000
1342.000
1409.000
1451.000
1323.000
1311.000
1174.000
1097.000
1082.000
1075.000
1088.000
1109.000
1159.000
1280.000
1404.000
1555.000
1634.000
1563.000
1380.000
1338.000
1133.000
1120.000
1060.000
1032.000
1069.000
1004.000
1033.000
1005.000
1045.000
1040.000
1154.000
1176.000
1361.000
1559.000
1646.000
1567.000
1436.000
1249.000
1126.000
1039.000
1107.000
992.000
1119.000
1100.000
1055.000
1091.000
1024.000
934.000
906.000
957.000
953.000
956.000
992.000
921.000
985.000
901.000
926.000
912.000
861.000
873.000
927.000
919.000
922.000
957.000
927.000
1027.000
1090.000
1099.000
1189.000
1257.000
1231.000
1103.000
1003.000
968.000
910.000
946.000
1015.000
1051.000
984.000
1015.000
967.000
922.000
917.000
956.000
1000.000
1183.000
1412.000
1476.000
1518.000
1507.000
1338.000
1201.000
1036.000
838.000
810.000
779.000
733.000
748.000
746.000
753.000
773.000
761.000
832.000
786.000
797.000
834.000
751.000
775.000
768.000
704.000
724.000
664.000
695.000
715.000
674.000
697.000
705.000
661.000
720.000
650.000
730.000
707.000
671.000
649.000
674.000
712.000
716.000
767.000
835.000
892.000
808.000
846.000
777.000
716.000
631.000
676.000
610.000
636.000
607.000
595.000
622.000
600.000
622.000
582.000
555.000
604.000
590.000
566.000
606.000
595.000
651.000
594.000
613.000
620.000
554.000
587.000
551.000
541.000
549.000
566.000
530.000
590.000
586.000
541.000
522.000
545.000
545.000
520.000
532.000
523.000
525.000
537.000
518.000
530.000
495.000
496.000
505.000
523.000
538.000
516.000
502.000
488.000
467.000
495.000
468.000
457.000
478.000
472.000
465.000
456.000
441.000
454.000
473.000
457.000
455.000
468.000
470.000
485.000
478.000
472.000
470.000
430.000
441.000
427.000
430.000
486.000
445.000
454.000
437.000
383.000
440.000
413.000
416.000
444.000
418.000
392.000
404.000
405.000
458.000
459.000
540.000
634.000
755.000
930.000
953.000
1033.000
928.000
792.000
758.000
544.000
530.000
412.000
397.000
388.000
370.000
374.000
377.000
341.000
340.000
342.000
326.000
351.000
346.000
359.000
326.000
362.000
328.000
358.000
342.000
330.000
338.000
337.000
356.000
342.000
358.000
364.000
400.000
372.000
395.000
389.000
384.000
367.000
338.000
315.000
344.000
326.000
281.000
309.000
292.000
275.000
301.000
280.000
283.000
328.000
292.000
289.000
293.000
268.000
269.000
307.000
283.000
303.000
270.000
243.000
260.000
264.000
264.000
264.000
269.000
288.000
293.000
239.000
254.000
269.000
279.000
256.000
261.000
286.000
219.000
257.000
255.000
282.000
251.000
250.000
245.000
271.000
260.000
241.000
241.000
239.000
237.000
235.000
228.000
221.000
262.000
238.000
231.000
218.000
235.000
245.000
242.000
225.000
216.000
208.000
219.000
229.000
195.000
242.000
211.000
221.000
220.000
221.000
182.000
202.000
223.000
213.000
202.000
233.000
177.000
190.000
228.000
195.000
201.000
203.000
188.000
201.000
208.000
205.000
169.000
201.000
216.000
190.000
189.000
197.000
194.000
189.000
182.000
182.000
171.000
183.000
180.000
182.000
189.000
186.000
164.000
169.000
153.000
176.000
195.000
149.000
182.000
192.000
184.000
154.000
167.000
168.000
156.000
188.000
155.000
163.000
155.000
160.000
143.000
164.000
178.000
159.000
136.000
148.000
131.000
185.000
143.000
153.000
137.000
153.000
131.000
163.000
136.000
142.000
152.000
143.000
148.000
140.000
141.000
148.000
131.000
142.000
145.000
143.000
131.000
128.000
136.000
138.000
141.000
130.000
136.000
141.000
117.000
136.000
123.000
132.000
118.000
112.000
123.000
123.000
123.000
114.000
135.000
126.000
123.000
109.000
97.000
120.000
116.000
111.000
122.000
111.000
120.000
114.000
124.000
126.000
100.000
113.000
102.000
113.000
84.000
101.000
70.000
115.000
94.000
106.000
86.000
104.000
89.000
99.000
94.000
101.000
93.000
96.000
81.000
84.000
81.000
95.000
77.000
95.000
78.000
64.000
89.000
80.000
60.000
88.000
91.000
72.000
75.000
97.000
76.000
72.000
67.000
81.000
73.000
83.000
73.000
70.000
80.000
66.000
78.000
56.000
65.000
57.000
63.000
84.000
50.000
72.000
62.000
67.000
55.000
64.000
60.000
77.000
56.000
56.000
50.000
55.000
53.000
67.000
52.000
57.000
65.000
56.000
68.000
49.000
54.000
51.000
74.000
48.000
51.000
48.000
52.000
49.000
57.000
40.000
55.000
49.000
45.000
56.000
46.000
45.000
60.000
37.000
56.000
39.000
42.000
40.000
51.000
44.000
37.000
48.000
48.000
45.000
32.000
44.000
44.000
38.000
40.000
29.000
40.000
29.000
31.000
44.000
33.000
38.000
30.000
33.000
48.000
28.000
40.000
27.000
37.000
34.000
22.000
29.000
27.000
37.000
37.000
20.000
38.000
39.000
28.000
28.000
42.000
23.000
30.000
19.000
30.000
15.000
26.000
24.000
21.000
22.000
23.000
27.000
19.000
12.000
17.000
17.000
13.000
28.000
23.000
20.000
20.000
20.000
13.000
24.000
12.000
16.000
24.000
12.000
15.000
21.000
17.000
17.000
14.000
16.000
19.000
16.000
14.000
12.000
11.000
12.000
9.000
11.000
16.000
11.000
10.000
11.000
12.000
9.000
13.000
14.000
10.000
6.000
12.000
11.000
9.000
5.000
9.000
13.000
5.000
7.000
5.000
6.000
7.000
10.000
5.000
6.000
9.000
4.000
3.000
5.000
2.000
2.000
3.000
6.000
6.000
1.000
1.000
3.000
1.000
1.000
2.000
1.000
2.000
1.000
1.000
0.000
0.000
0.000
0.000
1.000
0.000
0.000
0.000
0.000
0.000
0.000
0.000
0.000
0.000
0.000
0.000
0.000
0.000
0.000
1.000
1.000
0.000
0.000
0.000
0.000
0.000
1.000
0.000
0.000
0.000
0.000
0.000
0.000
0.000
0.000
0.000
0.000
0.000
0.000
0.000
0.000
0.000
1.000
0.000
0.000
0.000
0.000
0.000
0.000
0.000
0.000
0.000
0.000
1.000
0.000
0.000
0.000
0.000
0.000
1.000
0.000
0.000
0.000
0.000
0.000
0.000
0.000
0.000
0.000
0.000
0.000
0.000
0.000
0.000
0.000
0.000
0.000
0.000
0.000
1.000
1.000
0.000
0.000
0.000
0.000
0.000
0.000
0.000
0.000
1.000
0.000
0.000
0.000
0.000
0.000
0.000
1.000
0.000
0.000
0.000
0.000
0.000
0.000
0.000
0.000
0.000
0.000
0.000
0.000
0.000
0.000
0.000
0.000
0.000
0.000
0.000
0.000
0.000
0.000
0.000
0.000
0.000
0.000
0.000
0.000
0.000
0.000
0.000
0.000
0.000
0.000
0.000
0.000
0.000
0.000
0.000
0.000
0.000
0.000
0.000
0.000
0.000
0.000
0.000
0.000
1.000
0.000
0.000
0.000
0.000
0.000
0.000
0.000
0.000
0.000
0.000
0.000
0.000
0.000
0.000
0.000
0.000
0.000
0.000
0.000
0.000
0.000
0.000
0.000
0.000
0.000
0.000
0.000
0.000
1.000
0.000
0.000
0.000
0.000
0.000
0.000
1.000
0.000
0.000
0.000
0.000
0.000
0.000
0.000
0.000
0.000
0.000
0.000
0.000
0.000
0.000
0.000
0.000
0.000
1.000
0.000
0.000
0.000
0.000
0.000
0.000
0.000
0.000
0.000
0.000
0.000
0.000
0.000
0.000
0.000
0.000
0.000
0.000
0.000
0.000
0.000
0.000
0.000
0.000
0.000
0.000
0.000
0.000
0.000
0.000
1.000
1.000
0.000
0.000
0.000
0.000
0.000
0.000
0.000
0.000
0.000
0.000
0.000
0.000
0.000
0.000
0.000
0.000
0.000
0.000
0.000
0.000
0.000
0.000
0.000
0.000
0.000
0.000
0.000
0.000
0.000
0.000
0.000
0.000
0.000
0.000
0.000
0.000
0.000
0.000
0.000
#ENDOFDATA   :