File: data/SEM-data_2024/cross_sections/Sem-survey_medial_analysis_1_map/spectrum.emsa
#FORMAT      : EMSA/MAS Spectral Data File
#VERSION     : 1.0
#TITLE       : EDS Spectrum
#DATE        : 19-SEP-2024
#TIME        : 14:36
#OWNER       : Thermo Fisher Scientific Inc.
#NPOINTS     : 2048.
#NCOLUMNS    : 1.
#XUNITS      : eV
#YUNITS      : Counts
#DATATYPE    : Y
#XPERCHAN    : 9.903
#OFFSET      : -56.900
#XLABEL      : Energy
#YLABEL      : Counts
#SIGNALTYPE  : EDS
#BEAMKV      : 15.000
#AZIMANGLE-dg: 0.0
#ELEVANGLE-dg: 28.5
#LIVETIME    : 124.017
#REALTIME    : 130.498
#EDSDET      : SDUTW
##MNFWHM     : 129.6
##INSTRUMENT : MVE075582-10647-L
##SLOWTPEAK  : 0.000001000
##FASTTPEAK  : 0.000000100
##OPTICALWD  : 0.005500000
##WD         : 0.005760073
##SDDAREA    : 0.000025
##CCORR      : 260.454
##SCORR      : LIN
#SPECTRUM    : Spectral Data Starts Here
0.000
0.000
0.000
0.000
0.000
0.000
0.000
0.000
0.000
0.000
0.000
0.000
0.000
143.000
1339.000
3562.000
7153.000
9481.000
6699.000
2986.000
1499.000
1387.000
1709.000
1954.000
2478.000
4427.000
12058.000
32476.000
70496.000
94519.000
76191.000
34825.000
9702.000
2299.000
1216.000
1233.000
1438.000
1854.000
2275.000
2107.000
1659.000
1300.000
1243.000
1188.000
1182.000
1237.000
1256.000
1354.000
1432.000
1472.000
1685.000
2073.000
3080.000
5550.000
9357.000
11763.000
10498.000
6765.000
3622.000
2187.000
1863.000
1737.000
1858.000
2052.000
2603.000
3088.000
3393.000
3179.000
2675.000
2356.000
2173.000
2310.000
2404.000
2963.000
4803.000
10126.000
18883.000
27642.000
29591.000
22955.000
13660.000
7247.000
4234.000
3210.000
3003.000
3745.000
7582.000
19673.000
47370.000
88243.000
121370.000
121586.000
90155.000
50677.000
23403.000
11440.000
6532.000
4144.000
2573.000
1711.000
1359.000
1318.000
1341.000
1388.000
1434.000
1427.000
1348.000
1246.000
1182.000
1168.000
1154.000
1158.000
1126.000
1206.000
1356.000
1341.000
1475.000
1512.000
1541.000
1486.000
1433.000
1252.000
1200.000
1138.000
1128.000
1065.000
1080.000
1092.000
1163.000
1049.000
1092.000
1072.000
1129.000
1067.000
1153.000
1178.000
1061.000
1108.000
1094.000
1050.000
1070.000
1022.000
1052.000
1048.000
1066.000
1023.000
1085.000
1061.000
1011.000
1005.000
989.000
955.000
1000.000
989.000
992.000
1026.000
983.000
980.000
1006.000
994.000
941.000
985.000
1022.000
1009.000
1056.000
1135.000
1534.000
1902.000
2647.000
3276.000
3515.000
3362.000
2794.000
1980.000
1470.000
1236.000
1043.000
1058.000
1064.000
1097.000
1080.000
1150.000
1133.000
1250.000
1349.000
1551.000
1811.000
2250.000
2672.000
2932.000
2724.000
2364.000
1799.000
1318.000
1041.000
906.000
806.000
839.000
844.000
788.000
812.000
788.000
959.000
947.000
1026.000
1028.000
1041.000
938.000
892.000
850.000
812.000
744.000
742.000
729.000
776.000
744.000
764.000
719.000
775.000
681.000
764.000
714.000
698.000
712.000
739.000
761.000
745.000
883.000
850.000
973.000
1040.000
1050.000
925.000
907.000
804.000
776.000
676.000
677.000
627.000
653.000
654.000
619.000
651.000
622.000
562.000
580.000
591.000
643.000
608.000
658.000
626.000
638.000
681.000
650.000
670.000
621.000
593.000
612.000
582.000
572.000
590.000
543.000
569.000
573.000
534.000
586.000
542.000
581.000
553.000
580.000
538.000
536.000
537.000
531.000
548.000
497.000
548.000
576.000
530.000
522.000
480.000
513.000
501.000
510.000
526.000
515.000
501.000
479.000
487.000
483.000
494.000
467.000
478.000
507.000
489.000
474.000
521.000
527.000
528.000
515.000
509.000
545.000
507.000
481.000
462.000
446.000
451.000
442.000
425.000
465.000
450.000
459.000
425.000
472.000
456.000
457.000
431.000
415.000
462.000
533.000
659.000
860.000
1107.000
1429.000
1814.000
2019.000
2141.000
1976.000
1731.000
1336.000
986.000
808.000
547.000
484.000
426.000
415.000
413.000
397.000
367.000
352.000
418.000
365.000
424.000
366.000
374.000
364.000
373.000
383.000
382.000
348.000
376.000
406.000
387.000
392.000
426.000
435.000
470.000
528.000
540.000
593.000
508.000
486.000
469.000
427.000
401.000
364.000
346.000
337.000
350.000
290.000
294.000
306.000
294.000
296.000
286.000
326.000
306.000
291.000
288.000
335.000
276.000
309.000
326.000
285.000
272.000
307.000
284.000
288.000
256.000
278.000
290.000
301.000
261.000
304.000
251.000
285.000
246.000
273.000
252.000
265.000
239.000
269.000
239.000
260.000
256.000
240.000
273.000
269.000
263.000
218.000
242.000
244.000
250.000
245.000
261.000
260.000
200.000
250.000
238.000
247.000
236.000
254.000
195.000
219.000
229.000
225.000
240.000
228.000
245.000
237.000
207.000
185.000
191.000
220.000
206.000
222.000
205.000
185.000
220.000
228.000
219.000
185.000
215.000
208.000
228.000
212.000
215.000
173.000
233.000
184.000
196.000
170.000
205.000
183.000
193.000
190.000
192.000
169.000
187.000
202.000
196.000
171.000
194.000
183.000
186.000
207.000
196.000
200.000
151.000
184.000
198.000
175.000
159.000
160.000
180.000
164.000
174.000
178.000
176.000
159.000
165.000
148.000
155.000
169.000
157.000
182.000
153.000
150.000
176.000
156.000
124.000
158.000
145.000
156.000
148.000
138.000
138.000
146.000
149.000
123.000
153.000
155.000
152.000
167.000
150.000
151.000
133.000
141.000
140.000
135.000
151.000
126.000
137.000
123.000
144.000
133.000
136.000
129.000
119.000
113.000
121.000
134.000
110.000
113.000
131.000
123.000
101.000
121.000
113.000
105.000
124.000
125.000
119.000
89.000
108.000
94.000
99.000
118.000
110.000
118.000
105.000
98.000
97.000
113.000
110.000
110.000
101.000
100.000
113.000
114.000
97.000
101.000
99.000
93.000
102.000
105.000
92.000
90.000
100.000
106.000
111.000
83.000
85.000
95.000
91.000
93.000
84.000
68.000
97.000
95.000
76.000
81.000
98.000
81.000
91.000
94.000
75.000
91.000
89.000
86.000
74.000
84.000
67.000
79.000
79.000
63.000
69.000
60.000
62.000
71.000
68.000
64.000
83.000
75.000
72.000
67.000
58.000
62.000
68.000
69.000
58.000
55.000
75.000
64.000
62.000
56.000
51.000
69.000
55.000
54.000
58.000
56.000
56.000
43.000
56.000
60.000
54.000
63.000
62.000
56.000
50.000
57.000
60.000
67.000
47.000
56.000
46.000
38.000
60.000
44.000
49.000
55.000
37.000
56.000
48.000
40.000
41.000
44.000
50.000
45.000
42.000
41.000
48.000
42.000
37.000
34.000
33.000
36.000
28.000
39.000
43.000
48.000
47.000
26.000
27.000
34.000
34.000
32.000
37.000
36.000
30.000
32.000
27.000
30.000
36.000
18.000
21.000
31.000
30.000
27.000
31.000
31.000
27.000
17.000
29.000
32.000
16.000
18.000
28.000
25.000
23.000
19.000
22.000
21.000
25.000
13.000
17.000
25.000
19.000
14.000
17.000
12.000
21.000
18.000
16.000
17.000
16.000
11.000
26.000
10.000
12.000
15.000
14.000
18.000
8.000
11.000
14.000
9.000
14.000
5.000
15.000
8.000
7.000
16.000
7.000
12.000
9.000
8.000
7.000
6.000
7.000
14.000
5.000
7.000
4.000
5.000
9.000
5.000
10.000
2.000
9.000
4.000
4.000
3.000
3.000
2.000
5.000
2.000
6.000
2.000
0.000
2.000
2.000
1.000
2.000
2.000
4.000
1.000
0.000
0.000
2.000
1.000
0.000
0.000
1.000
0.000
0.000
0.000
0.000
0.000
1.000
0.000
0.000
0.000
0.000
1.000
1.000
0.000
0.000
1.000
0.000
0.000
0.000
0.000
0.000
0.000
0.000
0.000
0.000
0.000
0.000
0.000
0.000
1.000
0.000
0.000
0.000
0.000
0.000
0.000
0.000
1.000
0.000
0.000
0.000
0.000
0.000
0.000
0.000
0.000
0.000
0.000
0.000
0.000
0.000
0.000
0.000
0.000
0.000
0.000
0.000
0.000
0.000
0.000
0.000
0.000
0.000
0.000
0.000
0.000
0.000
0.000
0.000
0.000
1.000
0.000
0.000
0.000
0.000
0.000
0.000
0.000
0.000
0.000
0.000
0.000
0.000
0.000
1.000
0.000
0.000
0.000
0.000
0.000
0.000
0.000
0.000
0.000
0.000
0.000
0.000
0.000
0.000
0.000
0.000
0.000
0.000
0.000
0.000
0.000
0.000
0.000
0.000
0.000
0.000
0.000
0.000
1.000
0.000
0.000
0.000
0.000
0.000
0.000
0.000
0.000
0.000
0.000
0.000
0.000
0.000
0.000
0.000
0.000
0.000
1.000
0.000
0.000
0.000
0.000
0.000
0.000
0.000
0.000
0.000
0.000
0.000
0.000
0.000
0.000
0.000
0.000
0.000
0.000
0.000
0.000
1.000
0.000
1.000
0.000
0.000
0.000
1.000
0.000
0.000
0.000
0.000
0.000
0.000
0.000
0.000
0.000
0.000
0.000
0.000
0.000
0.000
0.000
0.000
0.000
0.000
0.000
0.000
0.000
0.000
0.000
0.000
0.000
0.000
0.000
0.000
0.000
0.000
0.000
0.000
0.000
0.000
0.000
0.000
1.000
0.000
0.000
0.000
0.000
0.000
0.000
0.000
0.000
0.000
0.000
0.000
0.000
0.000
0.000
0.000
0.000
0.000
0.000
0.000
0.000
0.000
0.000
0.000
0.000
0.000
0.000
0.000
0.000
0.000
0.000
0.000
0.000
0.000
0.000
0.000
0.000
0.000
0.000
0.000
0.000
0.000
0.000
0.000
0.000
0.000
0.000
0.000
0.000
0.000
0.000
0.000
0.000
0.000
0.000
1.000
0.000
1.000
1.000
0.000
0.000
0.000
0.000
0.000
0.000
0.000
0.000
0.000
0.000
0.000
0.000
0.000
0.000
0.000
0.000
1.000
#ENDOFDATA   :