File: data/SEM-data_2024/artifact_surfaces/P1-83_artifact_002_analysis_mw_region/spectrum.emsa
#FORMAT      : EMSA/MAS Spectral Data File
#VERSION     : 1.0
#TITLE       : EDS Spectrum
#DATE        : 19-SEP-2024
#TIME        : 11:20
#OWNER       : Thermo Fisher Scientific Inc.
#NPOINTS     : 2048.
#NCOLUMNS    : 1.
#XUNITS      : eV
#YUNITS      : Counts
#DATATYPE    : Y
#XPERCHAN    : 9.933
#OFFSET      : -44.878
#XLABEL      : Energy
#YLABEL      : Counts
#SIGNALTYPE  : EDS
#BEAMKV      : 15.000
#AZIMANGLE-dg: 0.0
#ELEVANGLE-dg: 28.5
#LIVETIME    : 28.710
#REALTIME    : 35.961
#EDSDET      : SDUTW
##MNFWHM     : 126.3
##INSTRUMENT : MVE075582-10647-L
##SLOWTPEAK  : 0.000004000
##FASTTPEAK  : 0.000000100
##OPTICALWD  : 0.005500000
##WD         : 0.009511501
##SDDAREA    : 0.000025
##CCORR      : 260.454
##SCORR      : LIN
#SPECTRUM    : Spectral Data Starts Here
0.000
0.000
0.000
0.000
0.000
0.000
0.000
67.000
62.000
48.000
44.000
47.000
60.000
85.000
250.000
529.000
649.000
516.000
182.000
117.000
144.000
208.000
219.000
244.000
334.000
847.000
2580.000
6522.000
10209.000
8017.000
2977.000
615.000
181.000
169.000
160.000
193.000
255.000
350.000
345.000
217.000
133.000
109.000
117.000
107.000
104.000
121.000
101.000
106.000
120.000
126.000
152.000
215.000
436.000
787.000
1087.000
950.000
523.000
272.000
151.000
152.000
126.000
129.000
145.000
148.000
216.000
227.000
208.000
156.000
161.000
154.000
140.000
131.000
159.000
231.000
503.000
974.000
1386.000
1607.000
1216.000
698.000
330.000
205.000
167.000
170.000
188.000
349.000
952.000
2656.000
5352.000
7400.000
7187.000
4868.000
2319.000
985.000
544.000
343.000
228.000
143.000
86.000
77.000
78.000
85.000
122.000
118.000
116.000
98.000
80.000
72.000
64.000
69.000
75.000
65.000
68.000
63.000
74.000
84.000
83.000
94.000
96.000
83.000
86.000
96.000
78.000
54.000
75.000
88.000
80.000
64.000
89.000
58.000
60.000
59.000
73.000
115.000
89.000
82.000
76.000
65.000
46.000
50.000
64.000
53.000
49.000
54.000
44.000
60.000
52.000
58.000
58.000
57.000
56.000
55.000
53.000
42.000
42.000
45.000
56.000
42.000
55.000
50.000
46.000
52.000
56.000
57.000
50.000
47.000
56.000
82.000
107.000
97.000
75.000
80.000
61.000
72.000
42.000
45.000
41.000
50.000
54.000
42.000
43.000
36.000
42.000
49.000
44.000
62.000
63.000
72.000
61.000
63.000
53.000
36.000
51.000
46.000
39.000
33.000
26.000
57.000
31.000
43.000
37.000
41.000
30.000
40.000
44.000
41.000
38.000
36.000
39.000
40.000
44.000
36.000
32.000
37.000
43.000
29.000
34.000
36.000
37.000
33.000
40.000
30.000
33.000
32.000
27.000
46.000
39.000
56.000
65.000
44.000
49.000
45.000
38.000
35.000
26.000
43.000
35.000
31.000
30.000
30.000
31.000
32.000
24.000
22.000
36.000
26.000
22.000
34.000
31.000
26.000
38.000
36.000
29.000
27.000
28.000
24.000
23.000
26.000
32.000
31.000
26.000
30.000
35.000
22.000
35.000
24.000
18.000
34.000
21.000
25.000
25.000
24.000
39.000
23.000
16.000
21.000
28.000
31.000
35.000
25.000
22.000
29.000
25.000
36.000
26.000
14.000
19.000
23.000
13.000
26.000
21.000
21.000
21.000
25.000
24.000
25.000
29.000
32.000
40.000
30.000
35.000
30.000
24.000
34.000
29.000
18.000
19.000
22.000
14.000
19.000
24.000
19.000
20.000
13.000
14.000
22.000
20.000
26.000
36.000
50.000
80.000
106.000
132.000
136.000
183.000
159.000
149.000
100.000
89.000
56.000
38.000
25.000
15.000
28.000
24.000
24.000
19.000
19.000
14.000
18.000
15.000
21.000
19.000
17.000
14.000
14.000
18.000
17.000
20.000
27.000
19.000
21.000
18.000
22.000
26.000
32.000
35.000
36.000
34.000
37.000
29.000
17.000
16.000
21.000
15.000
13.000
15.000
13.000
11.000
10.000
17.000
16.000
19.000
15.000
10.000
12.000
12.000
8.000
10.000
17.000
15.000
18.000
23.000
12.000
10.000
11.000
14.000
11.000
16.000
10.000
14.000
14.000
15.000
14.000
10.000
12.000
13.000
10.000
15.000
14.000
14.000
7.000
11.000
11.000
11.000
10.000
11.000
13.000
16.000
6.000
10.000
10.000
11.000
12.000
12.000
12.000
10.000
13.000
8.000
11.000
16.000
12.000
13.000
6.000
7.000
5.000
11.000
8.000
9.000
14.000
9.000
8.000
15.000
5.000
7.000
14.000
8.000
10.000
5.000
11.000
13.000
8.000
9.000
8.000
16.000
6.000
8.000
8.000
7.000
10.000
10.000
11.000
7.000
11.000
8.000
9.000
4.000
7.000
10.000
10.000
2.000
13.000
8.000
10.000
6.000
8.000
10.000
7.000
7.000
5.000
10.000
4.000
8.000
4.000
4.000
6.000
7.000
6.000
13.000
1.000
7.000
4.000
7.000
8.000
7.000
10.000
9.000
4.000
7.000
7.000
7.000
6.000
6.000
4.000
7.000
7.000
4.000
12.000
8.000
5.000
4.000
6.000
6.000
7.000
8.000
13.000
5.000
8.000
6.000
9.000
7.000
9.000
7.000
5.000
10.000
6.000
11.000
3.000
6.000
8.000
7.000
9.000
3.000
8.000
7.000
11.000
3.000
5.000
8.000
4.000
4.000
4.000
3.000
5.000
1.000
7.000
4.000
4.000
6.000
4.000
3.000
3.000
6.000
2.000
10.000
6.000
1.000
3.000
6.000
1.000
5.000
6.000
2.000
2.000
6.000
4.000
6.000
3.000
4.000
4.000
5.000
6.000
3.000
2.000
6.000
2.000
3.000
5.000
6.000
4.000
4.000
1.000
5.000
4.000
4.000
5.000
2.000
3.000
4.000
2.000
2.000
3.000
4.000
5.000
2.000
4.000
1.000
2.000
7.000
4.000
3.000
2.000
4.000
0.000
2.000
1.000
2.000
1.000
2.000
2.000
5.000
4.000
5.000
5.000
2.000
2.000
3.000
2.000
1.000
1.000
4.000
6.000
2.000
1.000
2.000
4.000
6.000
2.000
2.000
1.000
1.000
1.000
3.000
4.000
2.000
3.000
1.000
1.000
2.000
2.000
3.000
1.000
2.000
3.000
2.000
2.000
0.000
2.000
2.000
4.000
2.000
0.000
3.000
3.000
2.000
3.000
3.000
2.000
2.000
3.000
0.000
1.000
2.000
2.000
3.000
1.000
1.000
2.000
1.000
0.000
0.000
0.000
2.000
1.000
2.000
1.000
1.000
0.000
2.000
2.000
0.000
1.000
0.000
1.000
1.000
2.000
0.000
2.000
1.000
0.000
2.000
1.000
2.000
0.000
1.000
1.000
0.000
0.000
0.000
1.000
0.000
0.000
0.000
1.000
1.000
0.000
0.000
3.000
2.000
2.000
0.000
0.000
1.000
0.000
0.000
2.000
1.000
0.000
1.000
1.000
0.000
1.000
2.000
0.000
1.000
0.000
0.000
0.000
0.000
0.000
0.000
1.000
0.000
0.000
2.000
0.000
0.000
0.000
0.000
0.000
1.000
0.000
1.000
1.000
0.000
0.000
0.000
0.000
1.000
0.000
0.000
1.000
1.000
0.000
0.000
0.000
0.000
0.000
0.000
1.000
0.000
0.000
0.000
0.000
0.000
0.000
0.000
0.000
0.000
0.000
0.000
0.000
0.000
0.000
0.000
0.000
0.000
0.000
0.000
0.000
0.000
0.000
0.000
0.000
0.000
0.000
0.000
0.000
0.000
0.000
0.000
0.000
0.000
0.000
0.000
0.000
0.000
0.000
0.000
0.000
0.000
0.000
0.000
0.000
0.000
0.000
0.000
0.000
0.000
0.000
0.000
0.000
0.000
0.000
0.000
0.000
0.000
0.000
0.000
0.000
0.000
0.000
0.000
0.000
0.000
0.000
0.000
0.000
0.000
0.000
0.000
0.000
0.000
0.000
0.000
0.000
0.000
0.000
0.000
0.000
0.000
0.000
0.000
0.000
0.000
0.000
0.000
0.000
0.000
0.000
0.000
0.000
0.000
0.000
0.000
0.000
0.000
0.000
0.000
0.000
0.000
0.000
0.000
0.000
0.000
0.000
0.000
0.000
0.000
0.000
0.000
0.000
0.000
0.000
0.000
0.000
0.000
0.000
0.000
0.000
0.000
0.000
0.000
0.000
0.000
0.000
0.000
0.000
0.000
0.000
0.000
0.000
0.000
0.000
0.000
0.000
0.000
0.000
0.000
0.000
0.000
0.000
0.000
0.000
0.000
0.000
0.000
0.000
0.000
0.000
0.000
0.000
0.000
0.000
0.000
0.000
0.000
0.000
0.000
0.000
0.000
0.000
0.000
0.000
0.000
0.000
0.000
0.000
0.000
0.000
0.000
0.000
0.000
0.000
0.000
0.000
0.000
0.000
0.000
0.000
0.000
0.000
0.000
0.000
0.000
0.000
0.000
0.000
0.000
0.000
0.000
0.000
0.000
0.000
0.000
0.000
0.000
0.000
0.000
0.000
0.000
0.000
0.000
0.000
0.000
0.000
0.000
0.000
0.000
0.000
0.000
0.000
0.000
0.000
0.000
0.000
0.000
0.000
0.000
0.000
0.000
0.000
0.000
0.000
0.000
0.000
0.000
0.000
0.000
0.000
0.000
0.000
0.000
0.000
0.000
0.000
0.000
0.000
0.000
0.000
0.000
0.000
0.000
0.000
0.000
0.000
0.000
0.000
0.000
0.000
0.000
0.000
0.000
0.000
0.000
0.000
0.000
0.000
0.000
0.000
0.000
0.000
0.000
0.000
0.000
0.000
0.000
0.000
0.000
0.000
0.000
0.000
0.000
0.000
0.000
#ENDOFDATA   :