File: data/SEM-data_2024/artifact_surfaces/P5-1777_artifact_001_analysis_mw_region/spectrum.emsa
#FORMAT      : EMSA/MAS Spectral Data File
#VERSION     : 1.0
#TITLE       : EDS Spectrum
#DATE        : 19-SEP-2024
#TIME        : 11:20
#OWNER       : Thermo Fisher Scientific Inc.
#NPOINTS     : 2048.
#NCOLUMNS    : 1.
#XUNITS      : eV
#YUNITS      : Counts
#DATATYPE    : Y
#XPERCHAN    : 9.933
#OFFSET      : -44.878
#XLABEL      : Energy
#YLABEL      : Counts
#SIGNALTYPE  : EDS
#BEAMKV      : 15.000
#AZIMANGLE-dg: 0.0
#ELEVANGLE-dg: 28.5
#LIVETIME    : 27.793
#REALTIME    : 35.162
#EDSDET      : SDUTW
##MNFWHM     : 126.3
##INSTRUMENT : MVE075582-10647-L
##SLOWTPEAK  : 0.000004000
##FASTTPEAK  : 0.000000100
##OPTICALWD  : 0.005500000
##WD         : 0.009608297
##SDDAREA    : 0.000025
##CCORR      : 260.454
##SCORR      : LIN
#SPECTRUM    : Spectral Data Starts Here
0.000
0.000
0.000
0.000
0.000
0.000
0.000
70.000
59.000
45.000
42.000
55.000
56.000
61.000
197.000
359.000
505.000
390.000
173.000
134.000
160.000
210.000
247.000
247.000
372.000
872.000
2824.000
7064.000
10832.000
8531.000
3231.000
658.000
211.000
207.000
169.000
242.000
368.000
485.000
479.000
289.000
161.000
109.000
116.000
121.000
106.000
101.000
116.000
130.000
123.000
147.000
170.000
222.000
397.000
789.000
1108.000
881.000
549.000
257.000
158.000
123.000
112.000
143.000
148.000
187.000
191.000
233.000
201.000
166.000
127.000
144.000
138.000
141.000
190.000
252.000
554.000
1102.000
1763.000
1817.000
1395.000
767.000
344.000
219.000
180.000
146.000
192.000
357.000
874.000
2342.000
4572.000
6646.000
6420.000
4467.000
2145.000
875.000
474.000
336.000
209.000
128.000
90.000
70.000
92.000
102.000
117.000
151.000
123.000
103.000
73.000
74.000
78.000
67.000
56.000
58.000
68.000
67.000
76.000
65.000
92.000
85.000
79.000
81.000
84.000
66.000
63.000
65.000
61.000
71.000
60.000
74.000
59.000
71.000
67.000
69.000
72.000
80.000
88.000
90.000
68.000
65.000
55.000
52.000
78.000
54.000
62.000
48.000
55.000
56.000
66.000
64.000
54.000
61.000
52.000
68.000
47.000
53.000
57.000
56.000
51.000
73.000
49.000
57.000
45.000
49.000
50.000
63.000
48.000
66.000
84.000
100.000
142.000
155.000
138.000
95.000
88.000
55.000
49.000
41.000
42.000
45.000
43.000
42.000
70.000
56.000
53.000
66.000
58.000
58.000
74.000
70.000
70.000
67.000
51.000
52.000
39.000
55.000
34.000
45.000
45.000
37.000
31.000
31.000
40.000
43.000
43.000
35.000
40.000
46.000
41.000
27.000
46.000
38.000
33.000
36.000
29.000
37.000
41.000
42.000
33.000
37.000
37.000
35.000
40.000
27.000
34.000
37.000
41.000
28.000
33.000
45.000
38.000
47.000
52.000
52.000
54.000
33.000
35.000
38.000
30.000
36.000
30.000
34.000
35.000
24.000
27.000
27.000
30.000
21.000
32.000
28.000
26.000
35.000
37.000
43.000
31.000
22.000
29.000
20.000
27.000
27.000
18.000
19.000
34.000
24.000
25.000
25.000
29.000
19.000
24.000
22.000
28.000
29.000
29.000
19.000
42.000
19.000
15.000
29.000
27.000
30.000
22.000
21.000
16.000
23.000
23.000
25.000
25.000
19.000
24.000
18.000
27.000
20.000
24.000
19.000
19.000
24.000
22.000
25.000
15.000
25.000
23.000
21.000
24.000
17.000
17.000
21.000
9.000
22.000
19.000
23.000
24.000
20.000
24.000
15.000
19.000
15.000
16.000
18.000
27.000
28.000
29.000
51.000
85.000
123.000
171.000
187.000
199.000
214.000
164.000
132.000
93.000
69.000
35.000
26.000
22.000
25.000
17.000
21.000
14.000
17.000
17.000
11.000
13.000
21.000
21.000
23.000
13.000
19.000
22.000
12.000
19.000
18.000
16.000
15.000
21.000
25.000
37.000
36.000
38.000
40.000
32.000
42.000
22.000
28.000
20.000
14.000
9.000
15.000
15.000
15.000
16.000
18.000
10.000
14.000
18.000
14.000
14.000
17.000
12.000
13.000
14.000
11.000
9.000
9.000
12.000
18.000
14.000
14.000
11.000
13.000
9.000
11.000
9.000
20.000
21.000
12.000
8.000
9.000
10.000
11.000
13.000
8.000
10.000
12.000
14.000
7.000
12.000
15.000
11.000
11.000
6.000
9.000
10.000
9.000
14.000
10.000
17.000
8.000
11.000
5.000
8.000
5.000
16.000
9.000
12.000
14.000
12.000
8.000
7.000
9.000
12.000
9.000
10.000
13.000
13.000
14.000
9.000
4.000
8.000
10.000
8.000
8.000
7.000
9.000
9.000
6.000
12.000
12.000
5.000
7.000
9.000
6.000
11.000
8.000
7.000
5.000
10.000
3.000
9.000
16.000
4.000
7.000
5.000
4.000
11.000
9.000
7.000
6.000
4.000
5.000
9.000
14.000
10.000
6.000
3.000
11.000
9.000
6.000
5.000
8.000
10.000
7.000
6.000
11.000
5.000
5.000
3.000
5.000
5.000
10.000
2.000
9.000
8.000
8.000
9.000
6.000
2.000
6.000
3.000
15.000
2.000
5.000
5.000
7.000
4.000
8.000
5.000
5.000
7.000
1.000
10.000
7.000
4.000
8.000
4.000
10.000
7.000
8.000
3.000
4.000
4.000
6.000
5.000
1.000
4.000
1.000
2.000
5.000
2.000
4.000
5.000
9.000
3.000
6.000
4.000
4.000
5.000
4.000
5.000
6.000
1.000
1.000
2.000
7.000
8.000
1.000
5.000
6.000
4.000
4.000
3.000
6.000
3.000
3.000
3.000
3.000
2.000
4.000
4.000
2.000
4.000
3.000
2.000
5.000
1.000
2.000
3.000
3.000
0.000
3.000
4.000
0.000
4.000
3.000
2.000
3.000
3.000
5.000
2.000
5.000
0.000
1.000
2.000
3.000
4.000
3.000
0.000
1.000
4.000
1.000
7.000
4.000
3.000
3.000
3.000
1.000
0.000
6.000
2.000
2.000
5.000
1.000
2.000
4.000
1.000
1.000
0.000
4.000
2.000
4.000
1.000
1.000
1.000
1.000
1.000
3.000
6.000
0.000
4.000
4.000
1.000
2.000
3.000
5.000
2.000
3.000
2.000
1.000
0.000
2.000
2.000
2.000
0.000
0.000
2.000
0.000
1.000
1.000
0.000
1.000
0.000
1.000
0.000
4.000
1.000
1.000
2.000
1.000
1.000
4.000
1.000
1.000
1.000
2.000
3.000
1.000
1.000
4.000
0.000
1.000
0.000
2.000
1.000
1.000
1.000
2.000
0.000
2.000
0.000
1.000
0.000
1.000
0.000
1.000
2.000
1.000
2.000
0.000
0.000
0.000
0.000
0.000
0.000
1.000
0.000
1.000
1.000
0.000
1.000
3.000
0.000
0.000
0.000
0.000
1.000
0.000
2.000
1.000
3.000
0.000
0.000
0.000
0.000
0.000
0.000
0.000
0.000
0.000
0.000
0.000
0.000
0.000
0.000
0.000
0.000
0.000
1.000
0.000
0.000
0.000
0.000
0.000
0.000
0.000
0.000
0.000
0.000
0.000
0.000
0.000
0.000
0.000
0.000
0.000
0.000
0.000
0.000
0.000
0.000
0.000
0.000
0.000
0.000
0.000
0.000
0.000
0.000
0.000
0.000
0.000
0.000
0.000
0.000
0.000
0.000
0.000
0.000
0.000
0.000
0.000
0.000
0.000
0.000
0.000
0.000
0.000
0.000
0.000
0.000
0.000
0.000
0.000
0.000
0.000
0.000
0.000
0.000
0.000
0.000
0.000
0.000
0.000
0.000
0.000
0.000
0.000
0.000
0.000
0.000
0.000
0.000
0.000
0.000
0.000
0.000
0.000
0.000
0.000
0.000
0.000
0.000
0.000
0.000
0.000
0.000
0.000
0.000
0.000
0.000
0.000
0.000
0.000
0.000
0.000
0.000
0.000
0.000
0.000
0.000
0.000
0.000
0.000
0.000
0.000
0.000
0.000
0.000
0.000
0.000
0.000
0.000
0.000
0.000
0.000
0.000
0.000
0.000
0.000
0.000
0.000
0.000
0.000
0.000
0.000
0.000
0.000
0.000
0.000
0.000
0.000
0.000
0.000
0.000
0.000
0.000
0.000
0.000
0.000
0.000
0.000
0.000
0.000
0.000
0.000
0.000
0.000
0.000
0.000
0.000
0.000
0.000
0.000
0.000
0.000
0.000
0.000
0.000
0.000
0.000
0.000
0.000
0.000
0.000
0.000
0.000
0.000
0.000
0.000
0.000
0.000
0.000
0.000
0.000
0.000
0.000
0.000
0.000
0.000
0.000
0.000
0.000
0.000
0.000
0.000
0.000
0.000
0.000
0.000
0.000
0.000
0.000
0.000
0.000
0.000
0.000
0.000
0.000
0.000
0.000
0.000
0.000
0.000
0.000
0.000
0.000
0.000
0.000
0.000
0.000
0.000
0.000
0.000
0.000
0.000
0.000
0.000
0.000
0.000
0.000
0.000
0.000
0.000
0.000
0.000
0.000
0.000
0.000
0.000
0.000
0.000
0.000
0.000
0.000
0.000
0.000
0.000
0.000
0.000
0.000
0.000
0.000
0.000
0.000
0.000
0.000
0.000
0.000
0.000
0.000
0.000
0.000
0.000
0.000
0.000
0.000
0.000
0.000
0.000
0.000
0.000
0.000
0.000
0.000
0.000
0.000
0.000
0.000
0.000
0.000
0.000
0.000
0.000
0.000
0.000
0.000
0.000
0.000
0.000
0.000
0.000
0.000
0.000
0.000
0.000
0.000
0.000
0.000
0.000
0.000
0.000
0.000
0.000
0.000
0.000
0.000
0.000
0.000
0.000
0.000
0.000
0.000
0.000
0.000
0.000
0.000
0.000
0.000
#ENDOFDATA   :