File: data/SEM-data_2024/cross_sections/P1-495_medial_analysis_1_map/spectrum.emsa
#FORMAT      : EMSA/MAS Spectral Data File
#VERSION     : 1.0
#TITLE       : EDS Spectrum
#DATE        : 19-SEP-2024
#TIME        : 14:36
#OWNER       : Thermo Fisher Scientific Inc.
#NPOINTS     : 2048.
#NCOLUMNS    : 1.
#XUNITS      : eV
#YUNITS      : Counts
#DATATYPE    : Y
#XPERCHAN    : 9.903
#OFFSET      : -56.900
#XLABEL      : Energy
#YLABEL      : Counts
#SIGNALTYPE  : EDS
#BEAMKV      : 15.000
#AZIMANGLE-dg: 0.0
#ELEVANGLE-dg: 28.5
#LIVETIME    : 75.768
#REALTIME    : 85.189
#EDSDET      : SDUTW
##MNFWHM     : 129.6
##INSTRUMENT : MVE075582-10647-L
##SLOWTPEAK  : 0.000001000
##FASTTPEAK  : 0.000000100
##OPTICALWD  : 0.005500000
##WD         : 0.009104344
##SDDAREA    : 0.000025
##CCORR      : 260.454
##SCORR      : LIN
#SPECTRUM    : Spectral Data Starts Here
0.000
0.000
0.000
0.000
0.000
0.000
0.000
0.000
0.000
0.000
0.000
0.000
0.000
137.000
1204.000
3409.000
6643.000
9005.000
6507.000
2983.000
1620.000
1690.000
2196.000
2548.000
3068.000
5457.000
15045.000
41677.000
88346.000
115475.000
91551.000
41758.000
11516.000
2984.000
1723.000
1604.000
1901.000
2355.000
2519.000
2405.000
1921.000
1628.000
1449.000
1472.000
1444.000
1415.000
1465.000
1543.000
1679.000
1779.000
1968.000
2427.000
3731.000
6902.000
11388.000
14281.000
12405.000
7948.000
4164.000
2442.000
1853.000
1878.000
1978.000
2097.000
2619.000
2948.000
3264.000
3024.000
2575.000
2220.000
2065.000
2275.000
2311.000
2890.000
4367.000
8631.000
15997.000
23035.000
24114.000
18911.000
11685.000
6227.000
3879.000
3020.000
2931.000
3816.000
7538.000
20137.000
48377.000
89340.000
120632.000
120566.000
88799.000
49176.000
22818.000
11164.000
6342.000
4054.000
2528.000
1739.000
1434.000
1330.000
1345.000
1375.000
1396.000
1368.000
1258.000
1126.000
1141.000
1147.000
1108.000
1191.000
1245.000
1379.000
1577.000
1954.000
2510.000
3183.000
3713.000
4113.000
3595.000
2838.000
2111.000
1421.000
1281.000
1176.000
1174.000
1163.000
1170.000
1058.000
1061.000
1057.000
1055.000
1043.000
1177.000
1161.000
1081.000
1092.000
1006.000
1043.000
934.000
968.000
984.000
1070.000
1074.000
1009.000
1011.000
936.000
990.000
957.000
942.000
909.000
908.000
894.000
850.000
881.000
856.000
899.000
891.000
876.000
847.000
855.000
928.000
858.000
905.000
993.000
1248.000
1409.000
1804.000
2096.000
2204.000
2147.000
1769.000
1419.000
1129.000
972.000
960.000
990.000
997.000
967.000
1135.000
965.000
976.000
945.000
1015.000
1095.000
1253.000
1424.000
1656.000
1733.000
1704.000
1405.000
1127.000
995.000
767.000
767.000
680.000
730.000
730.000
730.000
690.000
746.000
749.000
706.000
780.000
818.000
767.000
767.000
735.000
737.000
672.000
629.000
605.000
653.000
651.000
607.000
637.000
626.000
632.000
603.000
596.000
636.000
569.000
588.000
551.000
598.000
598.000
601.000
665.000
715.000
713.000
694.000
647.000
641.000
607.000
587.000
594.000
574.000
610.000
561.000
598.000
572.000
585.000
568.000
558.000
500.000
557.000
551.000
553.000
560.000
522.000
583.000
567.000
583.000
536.000
523.000
548.000
526.000
507.000
528.000
525.000
500.000
473.000
463.000
539.000
486.000
484.000
470.000
473.000
511.000
467.000
440.000
452.000
498.000
454.000
433.000
457.000
425.000
441.000
471.000
424.000
414.000
429.000
454.000
421.000
396.000
435.000
415.000
412.000
395.000
427.000
387.000
396.000
412.000
453.000
436.000
461.000
506.000
508.000
586.000
553.000
520.000
533.000
519.000
427.000
426.000
386.000
395.000
392.000
353.000
387.000
373.000
359.000
336.000
406.000
340.000
413.000
401.000
451.000
469.000
528.000
744.000
1001.000
1302.000
1541.000
1792.000
1882.000
1769.000
1461.000
1120.000
864.000
594.000
441.000
430.000
363.000
350.000
293.000
319.000
307.000
283.000
336.000
302.000
302.000
316.000
321.000
307.000
305.000
299.000
326.000
333.000
299.000
321.000
322.000
381.000
353.000
385.000
419.000
426.000
456.000
472.000
450.000
403.000
409.000
363.000
306.000
292.000
264.000
258.000
296.000
246.000
278.000
281.000
251.000
266.000
289.000
240.000
267.000
255.000
241.000
256.000
284.000
276.000
287.000
253.000
272.000
234.000
247.000
247.000
250.000
208.000
223.000
226.000
240.000
241.000
225.000
213.000
219.000
225.000
220.000
227.000
223.000
201.000
237.000
255.000
208.000
213.000
201.000
210.000
192.000
210.000
234.000
224.000
209.000
220.000
185.000
225.000
209.000
220.000
232.000
194.000
212.000
188.000
182.000
195.000
199.000
195.000
187.000
198.000
186.000
201.000
166.000
198.000
167.000
205.000
192.000
173.000
179.000
186.000
181.000
170.000
179.000
182.000
168.000
179.000
178.000
185.000
142.000
174.000
156.000
170.000
171.000
187.000
145.000
146.000
161.000
154.000
154.000
173.000
163.000
151.000
196.000
163.000
157.000
127.000
159.000
173.000
148.000
157.000
157.000
153.000
140.000
147.000
152.000
143.000
121.000
132.000
142.000
144.000
159.000
135.000
143.000
158.000
125.000
128.000
134.000
137.000
114.000
144.000
138.000
125.000
118.000
127.000
116.000
134.000
121.000
139.000
129.000
125.000
119.000
106.000
132.000
112.000
122.000
116.000
112.000
108.000
113.000
105.000
113.000
127.000
128.000
110.000
109.000
130.000
79.000
107.000
105.000
98.000
100.000
115.000
100.000
113.000
95.000
104.000
89.000
104.000
118.000
117.000
102.000
90.000
96.000
85.000
97.000
97.000
126.000
99.000
107.000
96.000
78.000
95.000
101.000
98.000
75.000
106.000
78.000
89.000
89.000
84.000
83.000
73.000
87.000
97.000
83.000
87.000
90.000
78.000
79.000
84.000
81.000
62.000
71.000
68.000
79.000
84.000
88.000
75.000
67.000
62.000
56.000
92.000
65.000
59.000
76.000
60.000
77.000
65.000
60.000
81.000
57.000
65.000
62.000
68.000
74.000
72.000
76.000
66.000
53.000
58.000
77.000
64.000
62.000
51.000
49.000
50.000
49.000
61.000
55.000
45.000
47.000
65.000
44.000
43.000
56.000
53.000
60.000
56.000
47.000
59.000
44.000
41.000
45.000
55.000
49.000
48.000
37.000
50.000
44.000
37.000
49.000
37.000
48.000
40.000
53.000
49.000
45.000
47.000
43.000
44.000
41.000
41.000
38.000
31.000
39.000
40.000
37.000
30.000
30.000
37.000
43.000
41.000
38.000
26.000
35.000
47.000
34.000
31.000
43.000
31.000
36.000
36.000
41.000
37.000
37.000
31.000
31.000
25.000
31.000
34.000
32.000
27.000
26.000
27.000
20.000
22.000
28.000
34.000
38.000
28.000
16.000
22.000
28.000
23.000
22.000
17.000
7.000
28.000
19.000
21.000
31.000
31.000
27.000
20.000
22.000
26.000
22.000
20.000
10.000
20.000
20.000
14.000
14.000
18.000
17.000
14.000
14.000
15.000
12.000
23.000
13.000
13.000
20.000
14.000
15.000
13.000
15.000
16.000
16.000
14.000
9.000
8.000
7.000
13.000
10.000
8.000
9.000
11.000
10.000
13.000
11.000
8.000
3.000
10.000
11.000
11.000
6.000
9.000
2.000
11.000
7.000
5.000
6.000
6.000
5.000
5.000
9.000
3.000
3.000
2.000
5.000
5.000
4.000
2.000
1.000
2.000
3.000
6.000
2.000
2.000
3.000
2.000
2.000
4.000
1.000
4.000
2.000
1.000
0.000
2.000
0.000
1.000
0.000
0.000
0.000
0.000
0.000
3.000
0.000
1.000
1.000
0.000
1.000
0.000
0.000
1.000
0.000
2.000
0.000
0.000
0.000
0.000
0.000
0.000
0.000
1.000
1.000
0.000
1.000
0.000
0.000
0.000
0.000
0.000
0.000
0.000
0.000
0.000
0.000
1.000
0.000
0.000
0.000
0.000
0.000
1.000
0.000
0.000
0.000
0.000
0.000
1.000
0.000
0.000
0.000
0.000
0.000
1.000
1.000
1.000
0.000
0.000
0.000
0.000
0.000
0.000
0.000
0.000
1.000
0.000
0.000
0.000
0.000
0.000
0.000
0.000
0.000
0.000
0.000
0.000
0.000
0.000
0.000
0.000
0.000
1.000
0.000
0.000
0.000
1.000
1.000
0.000
0.000
0.000
0.000
0.000
0.000
1.000
0.000
0.000
0.000
0.000
0.000
1.000
0.000
0.000
0.000
0.000
0.000
0.000
0.000
0.000
0.000
0.000
0.000
0.000
0.000
0.000
0.000
1.000
0.000
0.000
0.000
0.000
0.000
0.000
0.000
0.000
0.000
0.000
0.000
0.000
0.000
0.000
0.000
2.000
2.000
0.000
0.000
0.000
0.000
0.000
0.000
0.000
1.000
0.000
0.000
0.000
0.000
0.000
0.000
0.000
1.000
0.000
0.000
0.000
0.000
0.000
0.000
0.000
0.000
0.000
0.000
0.000
0.000
0.000
0.000
0.000
0.000
0.000
0.000
0.000
0.000
0.000
0.000
0.000
0.000
0.000
0.000
0.000
0.000
0.000
0.000
0.000
0.000
0.000
0.000
0.000
0.000
0.000
0.000
0.000
0.000
0.000
0.000
0.000
0.000
0.000
0.000
0.000
0.000
0.000
0.000
0.000
0.000
0.000
0.000
0.000
0.000
0.000
0.000
0.000
0.000
0.000
0.000
0.000
0.000
0.000
0.000
0.000
0.000
0.000
0.000
0.000
0.000
0.000
0.000
0.000
0.000
0.000
0.000
0.000
0.000
0.000
0.000
0.000
0.000
0.000
0.000
0.000
0.000
0.000
0.000
0.000
0.000
1.000
0.000
0.000
0.000
0.000
0.000
0.000
0.000
0.000
0.000
0.000
0.000
0.000
0.000
0.000
0.000
0.000
0.000
0.000
0.000
0.000
0.000
#ENDOFDATA   :