File: data/SEM-data_2024/artifact_surfaces/P2-791_artifact_001_analysis_mw_region/spectrum.emsa
#FORMAT      : EMSA/MAS Spectral Data File
#VERSION     : 1.0
#TITLE       : EDS Spectrum
#DATE        : 19-SEP-2024
#TIME        : 11:20
#OWNER       : Thermo Fisher Scientific Inc.
#NPOINTS     : 2048.
#NCOLUMNS    : 1.
#XUNITS      : eV
#YUNITS      : Counts
#DATATYPE    : Y
#XPERCHAN    : 9.933
#OFFSET      : -44.878
#XLABEL      : Energy
#YLABEL      : Counts
#SIGNALTYPE  : EDS
#BEAMKV      : 15.000
#AZIMANGLE-dg: 0.0
#ELEVANGLE-dg: 28.5
#LIVETIME    : 198.886
#REALTIME    : 234.760
#EDSDET      : SDUTW
##MNFWHM     : 126.3
##INSTRUMENT : MVE075582-10647-L
##SLOWTPEAK  : 0.000004000
##FASTTPEAK  : 0.000000100
##OPTICALWD  : 0.005500000
##WD         : 0.0151784
##SDDAREA    : 0.000025
##CCORR      : 260.454
##SCORR      : LIN
#SPECTRUM    : Spectral Data Starts Here
0.000
0.000
0.000
0.000
0.000
0.000
0.000
142.000
57.000
48.000
57.000
37.000
52.000
82.000
154.000
382.000
496.000
392.000
178.000
150.000
200.000
296.000
329.000
323.000
378.000
832.000
2661.000
6605.000
10233.000
8076.000
3165.000
611.000
251.000
194.000
196.000
272.000
477.000
605.000
543.000
354.000
164.000
110.000
124.000
86.000
93.000
119.000
112.000
89.000
119.000
118.000
160.000
193.000
394.000
703.000
929.000
780.000
460.000
217.000
136.000
128.000
115.000
122.000
143.000
185.000
190.000
255.000
234.000
171.000
148.000
136.000
130.000
147.000
167.000
247.000
509.000
1003.000
1529.000
1663.000
1210.000
626.000
324.000
211.000
180.000
187.000
177.000
305.000
833.000
2231.000
4557.000
6481.000
6545.000
4326.000
2125.000
911.000
475.000
300.000
200.000
147.000
98.000
90.000
95.000
107.000
153.000
168.000
138.000
132.000
98.000
91.000
68.000
71.000
80.000
72.000
70.000
72.000
61.000
82.000
83.000
95.000
93.000
91.000
85.000
56.000
73.000
70.000
88.000
83.000
79.000
76.000
63.000
62.000
67.000
71.000
87.000
104.000
89.000
89.000
77.000
59.000
73.000
60.000
62.000
60.000
65.000
55.000
70.000
66.000
66.000
70.000
62.000
74.000
51.000
51.000
51.000
65.000
44.000
59.000
63.000
59.000
45.000
56.000
45.000
45.000
46.000
47.000
56.000
69.000
77.000
114.000
113.000
143.000
103.000
82.000
65.000
61.000
57.000
37.000
48.000
49.000
47.000
54.000
46.000
53.000
42.000
60.000
65.000
58.000
70.000
52.000
71.000
63.000
57.000
61.000
47.000
51.000
43.000
38.000
40.000
36.000
35.000
34.000
43.000
35.000
41.000
40.000
44.000
42.000
35.000
38.000
46.000
42.000
37.000
25.000
30.000
32.000
34.000
43.000
41.000
29.000
44.000
48.000
35.000
45.000
36.000
29.000
40.000
52.000
39.000
56.000
57.000
50.000
52.000
49.000
46.000
56.000
44.000
36.000
44.000
31.000
35.000
42.000
24.000
28.000
32.000
33.000
42.000
33.000
28.000
43.000
34.000
27.000
39.000
39.000
34.000
33.000
46.000
21.000
28.000
28.000
34.000
39.000
20.000
27.000
27.000
29.000
28.000
25.000
29.000
41.000
24.000
32.000
23.000
24.000
20.000
21.000
33.000
25.000
23.000
28.000
31.000
30.000
19.000
23.000
14.000
27.000
33.000
22.000
23.000
25.000
19.000
25.000
29.000
16.000
19.000
18.000
21.000
24.000
26.000
17.000
29.000
25.000
24.000
22.000
21.000
24.000
17.000
27.000
21.000
28.000
20.000
32.000
18.000
20.000
19.000
23.000
27.000
24.000
30.000
27.000
47.000
89.000
118.000
180.000
236.000
290.000
350.000
318.000
277.000
171.000
143.000
97.000
54.000
37.000
28.000
29.000
20.000
18.000
25.000
17.000
18.000
25.000
12.000
23.000
21.000
16.000
11.000
19.000
16.000
17.000
20.000
15.000
18.000
20.000
23.000
32.000
41.000
42.000
49.000
75.000
47.000
52.000
30.000
29.000
23.000
19.000
30.000
16.000
16.000
13.000
13.000
15.000
15.000
17.000
9.000
19.000
12.000
8.000
12.000
19.000
18.000
17.000
18.000
12.000
14.000
9.000
13.000
19.000
21.000
14.000
19.000
13.000
12.000
13.000
15.000
16.000
19.000
14.000
9.000
12.000
14.000
15.000
10.000
7.000
10.000
14.000
10.000
16.000
14.000
11.000
7.000
11.000
21.000
7.000
10.000
14.000
5.000
14.000
11.000
15.000
7.000
12.000
7.000
7.000
7.000
9.000
12.000
9.000
10.000
7.000
9.000
11.000
10.000
19.000
13.000
8.000
12.000
13.000
13.000
19.000
15.000
14.000
10.000
8.000
11.000
9.000
6.000
10.000
11.000
13.000
6.000
9.000
4.000
10.000
11.000
11.000
6.000
9.000
12.000
15.000
13.000
10.000
8.000
5.000
12.000
6.000
10.000
10.000
8.000
6.000
11.000
13.000
5.000
13.000
8.000
12.000
11.000
5.000
7.000
5.000
11.000
3.000
4.000
12.000
7.000
11.000
7.000
7.000
13.000
7.000
7.000
11.000
3.000
8.000
6.000
7.000
7.000
15.000
8.000
9.000
4.000
9.000
6.000
8.000
5.000
8.000
7.000
4.000
7.000
8.000
4.000
4.000
10.000
4.000
8.000
6.000
3.000
7.000
4.000
8.000
5.000
5.000
5.000
2.000
10.000
4.000
2.000
5.000
8.000
7.000
4.000
3.000
8.000
12.000
6.000
6.000
9.000
5.000
6.000
11.000
5.000
5.000
9.000
1.000
4.000
6.000
9.000
2.000
3.000
6.000
4.000
1.000
4.000
2.000
3.000
7.000
6.000
9.000
7.000
3.000
4.000
5.000
3.000
2.000
7.000
6.000
1.000
2.000
2.000
3.000
14.000
8.000
7.000
4.000
2.000
5.000
5.000
8.000
3.000
3.000
2.000
5.000
3.000
4.000
2.000
3.000
5.000
6.000
2.000
4.000
3.000
1.000
7.000
3.000
2.000
3.000
4.000
2.000
5.000
3.000
6.000
3.000
5.000
3.000
5.000
4.000
3.000
1.000
0.000
1.000
2.000
5.000
4.000
4.000
4.000
2.000
1.000
2.000
3.000
1.000
3.000
4.000
3.000
2.000
2.000
0.000
3.000
4.000
4.000
4.000
3.000
0.000
1.000
1.000
1.000
2.000
2.000
4.000
3.000
1.000
1.000
0.000
2.000
2.000
2.000
0.000
4.000
3.000
0.000
2.000
4.000
1.000
4.000
2.000
0.000
2.000
0.000
0.000
3.000
3.000
1.000
1.000
4.000
1.000
1.000
0.000
1.000
4.000
1.000
2.000
2.000
2.000
1.000
1.000
0.000
3.000
0.000
1.000
1.000
0.000
1.000
0.000
2.000
1.000
1.000
1.000
0.000
3.000
0.000
1.000
0.000
1.000
0.000
1.000
0.000
0.000
0.000
1.000
1.000
1.000
0.000
1.000
0.000
1.000
1.000
2.000
1.000
0.000
0.000
1.000
1.000
0.000
0.000
0.000
1.000
1.000
0.000
0.000
0.000
0.000
2.000
0.000
0.000
1.000
0.000
0.000
1.000
1.000
0.000
1.000
0.000
0.000
0.000
0.000
0.000
1.000
0.000
0.000
0.000
1.000
0.000
0.000
0.000
0.000
0.000
0.000
0.000
0.000
0.000
0.000
0.000
0.000
0.000
0.000
0.000
0.000
0.000
0.000
0.000
0.000
0.000
0.000
0.000
0.000
0.000
0.000
0.000
0.000
0.000
0.000
0.000
0.000
0.000
0.000
0.000
0.000
0.000
0.000
0.000
0.000
0.000
0.000
0.000
0.000
0.000
0.000
0.000
0.000
0.000
0.000
0.000
0.000
0.000
0.000
0.000
0.000
0.000
0.000
0.000
0.000
0.000
0.000
0.000
0.000
0.000
0.000
0.000
0.000
0.000
0.000
0.000
0.000
0.000
0.000
0.000
0.000
0.000
0.000
0.000
0.000
0.000
0.000
0.000
0.000
0.000
0.000
0.000
0.000
0.000
0.000
0.000
0.000
0.000
0.000
0.000
0.000
0.000
0.000
0.000
0.000
0.000
0.000
0.000
0.000
0.000
0.000
0.000
0.000
0.000
0.000
0.000
0.000
0.000
0.000
0.000
0.000
0.000
0.000
0.000
0.000
0.000
0.000
0.000
0.000
0.000
0.000
0.000
0.000
0.000
0.000
0.000
0.000
0.000
0.000
0.000
0.000
0.000
0.000
0.000
0.000
0.000
0.000
0.000
0.000
0.000
0.000
0.000
0.000
0.000
0.000
0.000
0.000
0.000
0.000
0.000
0.000
0.000
0.000
0.000
0.000
0.000
0.000
0.000
0.000
0.000
0.000
0.000
0.000
0.000
0.000
0.000
0.000
0.000
0.000
0.000
0.000
0.000
0.000
0.000
0.000
0.000
0.000
0.000
0.000
0.000
0.000
0.000
0.000
0.000
0.000
0.000
0.000
0.000
0.000
0.000
0.000
0.000
0.000
0.000
0.000
0.000
0.000
0.000
0.000
0.000
0.000
0.000
0.000
0.000
0.000
0.000
0.000
0.000
0.000
0.000
0.000
0.000
0.000
0.000
0.000
0.000
0.000
0.000
0.000
0.000
0.000
0.000
0.000
0.000
0.000
0.000
0.000
0.000
0.000
0.000
0.000
0.000
0.000
0.000
0.000
0.000
0.000
0.000
0.000
0.000
0.000
0.000
0.000
0.000
0.000
0.000
0.000
0.000
0.000
0.000
0.000
0.000
0.000
0.000
0.000
0.000
0.000
0.000
0.000
0.000
0.000
0.000
0.000
0.000
0.000
0.000
0.000
0.000
0.000
0.000
0.000
0.000
0.000
0.000
0.000
0.000
0.000
0.000
0.000
0.000
0.000
0.000
#ENDOFDATA   :