File: data/SEM-data_2024/artifact_surfaces/Sem-survey_artifact_001_analysis_lw_region/spectrum.emsa
#FORMAT      : EMSA/MAS Spectral Data File
#VERSION     : 1.0
#TITLE       : EDS Spectrum
#DATE        : 19-SEP-2024
#TIME        : 11:20
#OWNER       : Thermo Fisher Scientific Inc.
#NPOINTS     : 2048.
#NCOLUMNS    : 1.
#XUNITS      : eV
#YUNITS      : Counts
#DATATYPE    : Y
#XPERCHAN    : 9.933
#OFFSET      : -44.878
#XLABEL      : Energy
#YLABEL      : Counts
#SIGNALTYPE  : EDS
#BEAMKV      : 15.000
#AZIMANGLE-dg: 0.0
#ELEVANGLE-dg: 28.5
#LIVETIME    : 152.165
#REALTIME    : 178.991
#EDSDET      : SDUTW
##MNFWHM     : 126.3
##INSTRUMENT : MVE075582-10647-L
##SLOWTPEAK  : 0.000004000
##FASTTPEAK  : 0.000000100
##OPTICALWD  : 0.005500000
##WD         : 0.0141758
##SDDAREA    : 0.000025
##CCORR      : 260.454
##SCORR      : LIN
#SPECTRUM    : Spectral Data Starts Here
0.000
0.000
0.000
0.000
0.000
0.000
0.000
103.000
57.000
48.000
45.000
35.000
74.000
91.000
248.000
534.000
770.000
532.000
207.000
142.000
200.000
244.000
295.000
274.000
329.000
836.000
2355.000
6116.000
9422.000
7460.000
2883.000
549.000
147.000
140.000
122.000
170.000
257.000
313.000
313.000
191.000
133.000
100.000
101.000
112.000
88.000
129.000
113.000
103.000
110.000
124.000
140.000
157.000
332.000
641.000
799.000
724.000
459.000
219.000
131.000
121.000
133.000
151.000
168.000
239.000
390.000
394.000
343.000
224.000
187.000
124.000
144.000
152.000
143.000
274.000
595.000
1283.000
1894.000
1927.000
1599.000
834.000
417.000
250.000
178.000
189.000
180.000
365.000
916.000
2531.000
4919.000
7076.000
6830.000
4750.000
2301.000
974.000
474.000
319.000
220.000
144.000
92.000
84.000
87.000
93.000
80.000
123.000
93.000
113.000
86.000
73.000
83.000
86.000
76.000
77.000
66.000
71.000
70.000
68.000
100.000
64.000
97.000
84.000
77.000
71.000
80.000
63.000
62.000
72.000
65.000
70.000
73.000
62.000
66.000
79.000
85.000
74.000
93.000
84.000
78.000
65.000
59.000
66.000
49.000
68.000
54.000
58.000
76.000
52.000
61.000
58.000
52.000
49.000
56.000
60.000
56.000
52.000
49.000
53.000
60.000
63.000
52.000
53.000
64.000
57.000
53.000
62.000
72.000
91.000
139.000
200.000
259.000
249.000
235.000
172.000
117.000
77.000
73.000
50.000
55.000
56.000
55.000
54.000
68.000
69.000
71.000
82.000
87.000
91.000
105.000
109.000
104.000
94.000
87.000
70.000
60.000
48.000
50.000
22.000
38.000
40.000
38.000
41.000
45.000
51.000
45.000
46.000
46.000
53.000
60.000
55.000
31.000
40.000
37.000
36.000
47.000
46.000
28.000
37.000
30.000
34.000
39.000
39.000
34.000
28.000
36.000
33.000
35.000
33.000
62.000
46.000
62.000
59.000
75.000
48.000
57.000
41.000
25.000
35.000
36.000
36.000
26.000
32.000
34.000
33.000
30.000
27.000
33.000
31.000
26.000
20.000
40.000
36.000
38.000
30.000
40.000
18.000
32.000
34.000
35.000
31.000
29.000
29.000
22.000
23.000
36.000
33.000
38.000
18.000
29.000
31.000
23.000
25.000
28.000
22.000
17.000
31.000
28.000
18.000
27.000
28.000
28.000
30.000
23.000
21.000
22.000
28.000
31.000
22.000
24.000
34.000
24.000
28.000
20.000
18.000
24.000
34.000
21.000
30.000
35.000
22.000
36.000
36.000
24.000
34.000
22.000
23.000
25.000
28.000
19.000
22.000
27.000
25.000
24.000
34.000
23.000
17.000
22.000
20.000
25.000
21.000
39.000
38.000
69.000
99.000
132.000
150.000
180.000
168.000
127.000
107.000
78.000
51.000
34.000
32.000
28.000
17.000
23.000
13.000
20.000
23.000
25.000
17.000
16.000
20.000
14.000
19.000
14.000
24.000
19.000
15.000
15.000
23.000
17.000
19.000
12.000
27.000
25.000
34.000
31.000
41.000
29.000
32.000
20.000
22.000
24.000
21.000
8.000
14.000
15.000
14.000
14.000
15.000
23.000
11.000
13.000
13.000
17.000
8.000
12.000
12.000
11.000
6.000
11.000
12.000
13.000
11.000
19.000
20.000
16.000
14.000
11.000
19.000
7.000
13.000
14.000
17.000
12.000
15.000
19.000
16.000
11.000
12.000
4.000
15.000
16.000
13.000
15.000
13.000
20.000
10.000
11.000
7.000
13.000
13.000
16.000
13.000
7.000
12.000
9.000
10.000
7.000
15.000
11.000
6.000
9.000
11.000
10.000
15.000
13.000
8.000
7.000
8.000
7.000
10.000
8.000
15.000
9.000
11.000
4.000
13.000
15.000
8.000
14.000
12.000
11.000
8.000
12.000
11.000
7.000
7.000
9.000
6.000
11.000
9.000
8.000
8.000
6.000
8.000
6.000
5.000
11.000
8.000
1.000
4.000
12.000
11.000
12.000
9.000
11.000
3.000
8.000
7.000
9.000
7.000
6.000
5.000
6.000
10.000
8.000
6.000
5.000
8.000
4.000
10.000
12.000
9.000
5.000
10.000
6.000
10.000
9.000
2.000
8.000
8.000
8.000
8.000
8.000
10.000
13.000
6.000
7.000
6.000
4.000
7.000
5.000
11.000
6.000
3.000
4.000
7.000
5.000
5.000
7.000
6.000
7.000
3.000
5.000
3.000
2.000
10.000
5.000
4.000
3.000
6.000
8.000
2.000
4.000
7.000
8.000
5.000
5.000
2.000
7.000
8.000
9.000
2.000
1.000
5.000
5.000
9.000
1.000
7.000
3.000
2.000
3.000
7.000
2.000
5.000
5.000
3.000
5.000
4.000
5.000
6.000
5.000
0.000
4.000
3.000
3.000
5.000
8.000
5.000
3.000
5.000
6.000
1.000
8.000
4.000
3.000
1.000
3.000
2.000
1.000
2.000
5.000
2.000
7.000
4.000
4.000
3.000
2.000
6.000
5.000
6.000
6.000
2.000
1.000
2.000
1.000
0.000
3.000
3.000
5.000
3.000
3.000
0.000
4.000
1.000
4.000
1.000
2.000
2.000
4.000
3.000
4.000
3.000
2.000
5.000
3.000
4.000
2.000
3.000
2.000
1.000
1.000
3.000
3.000
3.000
3.000
2.000
2.000
2.000
1.000
3.000
2.000
3.000
3.000
4.000
4.000
3.000
1.000
2.000
4.000
5.000
2.000
1.000
1.000
2.000
2.000
3.000
1.000
1.000
1.000
0.000
0.000
1.000
1.000
6.000
2.000
5.000
2.000
2.000
3.000
2.000
2.000
3.000
2.000
2.000
0.000
1.000
2.000
0.000
1.000
0.000
1.000
1.000
3.000
2.000
0.000
2.000
1.000
1.000
2.000
0.000
1.000
1.000
2.000
2.000
0.000
3.000
2.000
0.000
0.000
1.000
1.000
1.000
1.000
0.000
1.000
0.000
0.000
2.000
2.000
1.000
0.000
1.000
2.000
0.000
1.000
0.000
0.000
0.000
0.000
0.000
1.000
1.000
0.000
1.000
2.000
1.000
1.000
0.000
0.000
2.000
1.000
1.000
0.000
2.000
0.000
3.000
1.000
0.000
0.000
0.000
0.000
0.000
1.000
0.000
0.000
0.000
1.000
0.000
0.000
0.000
0.000
0.000
0.000
0.000
0.000
0.000
0.000
0.000
0.000
0.000
0.000
0.000
0.000
0.000
0.000
0.000
0.000
0.000
0.000
0.000
0.000
0.000
0.000
0.000
0.000
0.000
0.000
0.000
0.000
0.000
0.000
0.000
0.000
0.000
0.000
0.000
0.000
0.000
0.000
0.000
0.000
0.000
0.000
0.000
0.000
0.000
0.000
0.000
0.000
0.000
0.000
0.000
0.000
0.000
0.000
0.000
0.000
0.000
0.000
0.000
0.000
0.000
0.000
0.000
0.000
0.000
0.000
0.000
0.000
0.000
0.000
0.000
0.000
0.000
0.000
0.000
0.000
0.000
0.000
0.000
0.000
0.000
0.000
0.000
0.000
0.000
0.000
0.000
0.000
0.000
0.000
0.000
0.000
0.000
0.000
0.000
0.000
0.000
0.000
0.000
0.000
0.000
0.000
0.000
0.000
0.000
0.000
0.000
0.000
0.000
0.000
0.000
0.000
0.000
0.000
0.000
0.000
0.000
0.000
0.000
0.000
0.000
0.000
0.000
0.000
0.000
0.000
0.000
0.000
0.000
0.000
0.000
0.000
0.000
0.000
0.000
0.000
0.000
0.000
0.000
0.000
0.000
0.000
0.000
0.000
0.000
0.000
0.000
0.000
0.000
0.000
0.000
0.000
0.000
0.000
0.000
0.000
0.000
0.000
0.000
0.000
0.000
0.000
0.000
0.000
0.000
0.000
0.000
0.000
0.000
0.000
0.000
0.000
0.000
0.000
0.000
0.000
0.000
0.000
0.000
0.000
0.000
0.000
0.000
0.000
0.000
0.000
0.000
0.000
0.000
0.000
0.000
0.000
0.000
0.000
0.000
0.000
0.000
0.000
0.000
0.000
0.000
0.000
0.000
0.000
0.000
0.000
0.000
0.000
0.000
0.000
0.000
0.000
0.000
0.000
0.000
0.000
0.000
0.000
0.000
0.000
0.000
0.000
0.000
0.000
0.000
0.000
0.000
0.000
0.000
0.000
0.000
0.000
0.000
0.000
0.000
0.000
0.000
0.000
0.000
0.000
0.000
0.000
0.000
0.000
0.000
0.000
0.000
0.000
0.000
0.000
0.000
0.000
0.000
0.000
0.000
0.000
0.000
0.000
0.000
0.000
0.000
0.000
0.000
0.000
0.000
0.000
0.000
0.000
0.000
0.000
0.000
0.000
0.000
0.000
0.000
0.000
0.000
0.000
0.000
0.000
0.000
0.000
0.000
0.000
0.000
0.000
0.000
0.000
0.000
0.000
0.000
0.000
#ENDOFDATA   :