File: data/SEM-data_2024/artifact_surfaces/P1-231_artifact_mw_analysis_1_region/spectrum.emsa
#FORMAT      : EMSA/MAS Spectral Data File
#VERSION     : 1.0
#TITLE       : EDS Spectrum
#DATE        : 19-SEP-2024
#TIME        : 11:20
#OWNER       : Thermo Fisher Scientific Inc.
#NPOINTS     : 2048.
#NCOLUMNS    : 1.
#XUNITS      : eV
#YUNITS      : Counts
#DATATYPE    : Y
#XPERCHAN    : 9.933
#OFFSET      : -44.878
#XLABEL      : Energy
#YLABEL      : Counts
#SIGNALTYPE  : EDS
#BEAMKV      : 15.000
#AZIMANGLE-dg: 0.0
#ELEVANGLE-dg: 28.5
#LIVETIME    : 42.380
#REALTIME    : 52.161
#EDSDET      : SDUTW
##MNFWHM     : 126.3
##INSTRUMENT : MVE075582-10647-L
##SLOWTPEAK  : 0.000004000
##FASTTPEAK  : 0.000000100
##OPTICALWD  : 0.005500000
##WD         : 0.006872113
##SDDAREA    : 0.000025
##CCORR      : 260.454
##SCORR      : LIN
#SPECTRUM    : Spectral Data Starts Here
0.000
0.000
0.000
0.000
0.000
0.000
0.000
65.000
46.000
34.000
43.000
34.000
45.000
78.000
186.000
424.000
583.000
436.000
179.000
105.000
108.000
129.000
134.000
162.000
263.000
593.000
1932.000
4933.000
7581.000
5876.000
2376.000
449.000
158.000
121.000
106.000
147.000
251.000
317.000
322.000
188.000
118.000
94.000
94.000
96.000
92.000
98.000
81.000
98.000
95.000
82.000
140.000
188.000
325.000
556.000
751.000
689.000
402.000
199.000
115.000
121.000
93.000
104.000
121.000
143.000
183.000
186.000
182.000
167.000
137.000
138.000
134.000
127.000
154.000
221.000
445.000
935.000
1492.000
1570.000
1163.000
596.000
303.000
240.000
182.000
197.000
226.000
416.000
1000.000
2908.000
6062.000
8298.000
8197.000
5428.000
2797.000
1234.000
579.000
416.000
255.000
155.000
99.000
93.000
71.000
103.000
122.000
132.000
113.000
108.000
74.000
88.000
87.000
82.000
83.000
81.000
79.000
79.000
77.000
86.000
82.000
100.000
90.000
98.000
108.000
108.000
82.000
76.000
77.000
91.000
89.000
86.000
78.000
79.000
85.000
80.000
93.000
101.000
101.000
111.000
89.000
76.000
74.000
84.000
74.000
77.000
63.000
66.000
72.000
87.000
72.000
49.000
79.000
89.000
65.000
70.000
83.000
63.000
56.000
78.000
68.000
73.000
71.000
60.000
59.000
57.000
66.000
60.000
81.000
77.000
94.000
116.000
131.000
127.000
149.000
134.000
83.000
75.000
62.000
64.000
73.000
70.000
68.000
62.000
51.000
49.000
70.000
83.000
88.000
86.000
82.000
135.000
101.000
107.000
91.000
68.000
50.000
66.000
62.000
50.000
57.000
63.000
54.000
53.000
67.000
46.000
69.000
61.000
44.000
59.000
52.000
56.000
54.000
49.000
54.000
47.000
47.000
49.000
51.000
48.000
47.000
38.000
55.000
56.000
52.000
40.000
55.000
51.000
67.000
54.000
69.000
68.000
83.000
86.000
78.000
61.000
54.000
45.000
45.000
45.000
45.000
40.000
54.000
44.000
53.000
43.000
38.000
55.000
47.000
41.000
41.000
40.000
52.000
46.000
37.000
36.000
48.000
44.000
39.000
33.000
41.000
43.000
48.000
51.000
51.000
30.000
56.000
45.000
37.000
36.000
48.000
38.000
48.000
45.000
39.000
41.000
51.000
38.000
43.000
38.000
40.000
48.000
32.000
39.000
32.000
31.000
40.000
42.000
29.000
36.000
39.000
44.000
39.000
27.000
37.000
36.000
27.000
46.000
34.000
46.000
45.000
50.000
37.000
35.000
43.000
49.000
39.000
40.000
39.000
33.000
25.000
26.000
27.000
25.000
27.000
25.000
27.000
28.000
27.000
36.000
35.000
54.000
62.000
92.000
116.000
182.000
248.000
280.000
334.000
312.000
232.000
198.000
130.000
106.000
63.000
48.000
35.000
21.000
32.000
25.000
29.000
33.000
26.000
28.000
24.000
23.000
37.000
28.000
33.000
24.000
23.000
25.000
28.000
28.000
28.000
37.000
24.000
37.000
48.000
61.000
48.000
67.000
54.000
53.000
56.000
43.000
29.000
26.000
24.000
18.000
15.000
31.000
26.000
24.000
31.000
16.000
17.000
16.000
23.000
22.000
31.000
12.000
13.000
21.000
12.000
22.000
16.000
37.000
25.000
25.000
26.000
22.000
21.000
20.000
18.000
25.000
22.000
21.000
20.000
14.000
23.000
29.000
23.000
12.000
12.000
25.000
15.000
21.000
15.000
24.000
19.000
15.000
15.000
20.000
22.000
17.000
19.000
16.000
17.000
14.000
19.000
19.000
24.000
14.000
8.000
20.000
17.000
15.000
21.000
15.000
13.000
19.000
17.000
5.000
21.000
13.000
13.000
20.000
15.000
15.000
12.000
19.000
10.000
15.000
24.000
14.000
8.000
23.000
17.000
14.000
19.000
14.000
11.000
18.000
14.000
13.000
13.000
11.000
11.000
8.000
16.000
16.000
13.000
9.000
15.000
14.000
8.000
15.000
16.000
11.000
12.000
12.000
14.000
13.000
12.000
13.000
16.000
15.000
10.000
11.000
9.000
9.000
13.000
10.000
13.000
15.000
15.000
14.000
15.000
14.000
15.000
8.000
9.000
6.000
9.000
17.000
12.000
15.000
11.000
10.000
10.000
15.000
9.000
6.000
11.000
14.000
13.000
11.000
10.000
13.000
11.000
14.000
12.000
8.000
7.000
8.000
5.000
6.000
9.000
15.000
12.000
12.000
10.000
6.000
14.000
10.000
10.000
11.000
11.000
8.000
5.000
8.000
11.000
16.000
8.000
7.000
9.000
10.000
13.000
6.000
11.000
9.000
8.000
14.000
4.000
10.000
5.000
13.000
8.000
8.000
7.000
11.000
3.000
7.000
5.000
7.000
4.000
5.000
14.000
5.000
5.000
9.000
10.000
4.000
7.000
8.000
4.000
6.000
7.000
3.000
7.000
7.000
6.000
4.000
9.000
7.000
5.000
6.000
4.000
7.000
2.000
2.000
6.000
4.000
6.000
7.000
4.000
5.000
3.000
4.000
8.000
5.000
5.000
1.000
3.000
4.000
8.000
4.000
6.000
2.000
5.000
7.000
3.000
5.000
2.000
8.000
6.000
3.000
3.000
3.000
4.000
6.000
3.000
3.000
6.000
10.000
2.000
3.000
4.000
4.000
4.000
4.000
3.000
3.000
3.000
4.000
3.000
6.000
2.000
3.000
2.000
4.000
4.000
4.000
7.000
7.000
2.000
0.000
1.000
3.000
2.000
2.000
3.000
2.000
1.000
2.000
0.000
1.000
4.000
2.000
2.000
5.000
5.000
3.000
3.000
4.000
3.000
8.000
3.000
3.000
6.000
4.000
1.000
2.000
0.000
0.000
0.000
4.000
1.000
4.000
2.000
0.000
4.000
1.000
0.000
0.000
1.000
3.000
3.000
1.000
2.000
0.000
3.000
1.000
2.000
3.000
2.000
2.000
1.000
0.000
1.000
2.000
2.000
3.000
1.000
1.000
0.000
1.000
1.000
0.000
1.000
0.000
1.000
0.000
1.000
1.000
1.000
0.000
1.000
4.000
2.000
1.000
0.000
1.000
0.000
1.000
0.000
0.000
1.000
1.000
0.000
1.000
0.000
0.000
1.000
0.000
1.000
0.000
1.000
1.000
0.000
0.000
1.000
1.000
0.000
1.000
0.000
0.000
0.000
1.000
1.000
0.000
0.000
1.000
0.000
0.000
0.000
0.000
0.000
0.000
0.000
0.000
0.000
1.000
0.000
0.000
0.000
0.000
0.000
0.000
0.000
0.000
0.000
0.000
0.000
0.000
0.000
0.000
0.000
0.000
0.000
0.000
0.000
0.000
0.000
0.000
0.000
0.000
0.000
0.000
0.000
0.000
0.000
0.000
0.000
0.000
0.000
0.000
0.000
0.000
0.000
0.000
0.000
0.000
0.000
0.000
0.000
0.000
0.000
0.000
0.000
0.000
0.000
0.000
0.000
0.000
0.000
0.000
0.000
0.000
0.000
1.000
0.000
0.000
0.000
0.000
0.000
0.000
0.000
0.000
0.000
0.000
0.000
0.000
0.000
0.000
0.000
0.000
0.000
0.000
0.000
0.000
0.000
0.000
0.000
0.000
0.000
0.000
0.000
0.000
0.000
0.000
0.000
0.000
0.000
0.000
0.000
0.000
0.000
0.000
0.000
0.000
0.000
0.000
0.000
0.000
0.000
0.000
0.000
0.000
0.000
0.000
0.000
0.000
0.000
0.000
0.000
0.000
0.000
0.000
0.000
0.000
0.000
0.000
0.000
0.000
0.000
0.000
0.000
0.000
0.000
0.000
0.000
0.000
0.000
0.000
0.000
0.000
0.000
0.000
0.000
0.000
0.000
0.000
0.000
0.000
0.000
0.000
0.000
0.000
0.000
0.000
0.000
0.000
0.000
0.000
0.000
0.000
0.000
0.000
0.000
0.000
0.000
0.000
0.000
0.000
0.000
0.000
0.000
0.000
0.000
0.000
0.000
0.000
0.000
0.000
0.000
0.000
0.000
0.000
0.000
0.000
0.000
0.000
0.000
0.000
0.000
0.000
0.000
0.000
0.000
0.000
0.000
0.000
0.000
0.000
0.000
0.000
0.000
0.000
0.000
0.000
0.000
0.000
0.000
0.000
0.000
0.000
0.000
0.000
0.000
0.000
0.000
0.000
0.000
0.000
0.000
0.000
0.000
0.000
0.000
0.000
0.000
0.000
0.000
0.000
0.000
0.000
0.000
0.000
0.000
0.000
0.000
0.000
0.000
0.000
0.000
0.000
0.000
0.000
0.000
0.000
0.000
0.000
0.000
0.000
0.000
0.000
0.000
0.000
0.000
0.000
0.000
0.000
0.000
0.000
0.000
0.000
0.000
0.000
0.000
0.000
0.000
0.000
0.000
0.000
0.000
0.000
0.000
0.000
0.000
0.000
0.000
0.000
0.000
0.000
0.000
0.000
0.000
#ENDOFDATA   :