File: data/SEM-data_2024/artifact_surfaces/P5-1843_artifact_001_analysis_lw_region/spectrum.emsa
#FORMAT      : EMSA/MAS Spectral Data File
#VERSION     : 1.0
#TITLE       : EDS Spectrum
#DATE        : 19-SEP-2024
#TIME        : 11:20
#OWNER       : Thermo Fisher Scientific Inc.
#NPOINTS     : 2048.
#NCOLUMNS    : 1.
#XUNITS      : eV
#YUNITS      : Counts
#DATATYPE    : Y
#XPERCHAN    : 9.933
#OFFSET      : -44.878
#XLABEL      : Energy
#YLABEL      : Counts
#SIGNALTYPE  : EDS
#BEAMKV      : 15.000
#AZIMANGLE-dg: 0.0
#ELEVANGLE-dg: 28.5
#LIVETIME    : 38.495
#REALTIME    : 46.559
#EDSDET      : SDUTW
##MNFWHM     : 126.3
##INSTRUMENT : MVE075582-10647-L
##SLOWTPEAK  : 0.000004000
##FASTTPEAK  : 0.000000100
##OPTICALWD  : 0.005500000
##WD         : 0.009952556
##SDDAREA    : 0.000025
##CCORR      : 260.454
##SCORR      : LIN
#SPECTRUM    : Spectral Data Starts Here
0.000
0.000
0.000
0.000
0.000
0.000
0.000
112.000
87.000
68.000
60.000
67.000
78.000
169.000
414.000
940.000
1279.000
876.000
348.000
201.000
229.000
337.000
397.000
347.000
439.000
970.000
2989.000
7454.000
11347.000
8967.000
3338.000
709.000
225.000
192.000
206.000
214.000
306.000
402.000
378.000
237.000
159.000
139.000
128.000
134.000
127.000
126.000
122.000
132.000
147.000
139.000
147.000
191.000
279.000
415.000
560.000
454.000
298.000
189.000
147.000
145.000
135.000
195.000
212.000
376.000
567.000
669.000
553.000
336.000
223.000
148.000
146.000
152.000
170.000
256.000
596.000
1301.000
1866.000
2036.000
1483.000
836.000
350.000
228.000
146.000
147.000
175.000
295.000
799.000
1887.000
3940.000
5572.000
5239.000
3698.000
1762.000
750.000
386.000
250.000
163.000
123.000
91.000
89.000
70.000
87.000
104.000
113.000
88.000
86.000
82.000
74.000
67.000
69.000
70.000
71.000
56.000
57.000
69.000
54.000
69.000
90.000
68.000
74.000
79.000
73.000
64.000
55.000
61.000
45.000
63.000
46.000
63.000
64.000
65.000
61.000
78.000
100.000
86.000
86.000
77.000
70.000
56.000
64.000
44.000
52.000
67.000
40.000
56.000
44.000
51.000
46.000
51.000
48.000
50.000
43.000
46.000
53.000
46.000
42.000
40.000
47.000
38.000
44.000
41.000
51.000
56.000
45.000
62.000
89.000
126.000
217.000
297.000
291.000
239.000
168.000
133.000
75.000
35.000
40.000
47.000
31.000
47.000
52.000
51.000
60.000
63.000
77.000
80.000
77.000
95.000
96.000
88.000
97.000
65.000
57.000
37.000
33.000
29.000
30.000
30.000
39.000
40.000
30.000
35.000
25.000
49.000
37.000
44.000
41.000
46.000
37.000
25.000
38.000
32.000
35.000
38.000
35.000
28.000
23.000
26.000
19.000
25.000
27.000
32.000
31.000
23.000
28.000
30.000
32.000
25.000
48.000
43.000
38.000
45.000
43.000
39.000
32.000
33.000
34.000
27.000
27.000
23.000
32.000
25.000
23.000
25.000
18.000
29.000
21.000
19.000
20.000
23.000
19.000
29.000
26.000
27.000
21.000
23.000
18.000
33.000
23.000
29.000
22.000
21.000
24.000
22.000
12.000
16.000
21.000
24.000
19.000
13.000
28.000
19.000
29.000
19.000
11.000
28.000
21.000
26.000
16.000
20.000
24.000
24.000
25.000
18.000
14.000
22.000
20.000
18.000
17.000
30.000
16.000
19.000
18.000
22.000
24.000
18.000
12.000
21.000
22.000
19.000
21.000
17.000
26.000
23.000
16.000
13.000
22.000
20.000
16.000
19.000
22.000
16.000
12.000
14.000
10.000
18.000
16.000
13.000
15.000
23.000
31.000
44.000
72.000
114.000
111.000
114.000
120.000
87.000
64.000
54.000
36.000
29.000
18.000
16.000
15.000
16.000
18.000
17.000
8.000
14.000
13.000
12.000
17.000
15.000
20.000
17.000
17.000
16.000
14.000
10.000
22.000
10.000
8.000
17.000
21.000
20.000
32.000
23.000
28.000
22.000
30.000
19.000
18.000
12.000
7.000
12.000
9.000
3.000
12.000
14.000
13.000
12.000
11.000
8.000
10.000
8.000
16.000
16.000
9.000
12.000
14.000
16.000
9.000
12.000
10.000
9.000
11.000
11.000
8.000
9.000
18.000
13.000
9.000
9.000
7.000
9.000
15.000
11.000
14.000
14.000
11.000
9.000
12.000
8.000
9.000
8.000
7.000
8.000
3.000
12.000
14.000
10.000
13.000
12.000
15.000
6.000
14.000
11.000
11.000
10.000
14.000
5.000
11.000
11.000
8.000
10.000
10.000
7.000
8.000
14.000
7.000
9.000
7.000
10.000
10.000
11.000
5.000
5.000
8.000
3.000
9.000
13.000
5.000
4.000
11.000
5.000
4.000
8.000
5.000
4.000
6.000
10.000
4.000
5.000
10.000
2.000
8.000
3.000
6.000
7.000
12.000
11.000
8.000
8.000
4.000
12.000
10.000
9.000
7.000
4.000
6.000
5.000
1.000
6.000
6.000
5.000
4.000
7.000
8.000
5.000
6.000
2.000
4.000
3.000
6.000
4.000
8.000
7.000
6.000
10.000
8.000
8.000
2.000
8.000
9.000
6.000
4.000
8.000
8.000
5.000
3.000
7.000
4.000
3.000
6.000
3.000
4.000
2.000
4.000
3.000
2.000
4.000
4.000
5.000
8.000
2.000
4.000
5.000
5.000
5.000
5.000
2.000
6.000
5.000
3.000
8.000
6.000
2.000
4.000
5.000
3.000
2.000
3.000
0.000
4.000
8.000
5.000
5.000
8.000
1.000
1.000
4.000
5.000
3.000
7.000
3.000
7.000
4.000
4.000
4.000
8.000
6.000
4.000
3.000
5.000
3.000
4.000
5.000
5.000
2.000
3.000
8.000
4.000
3.000
3.000
3.000
1.000
0.000
5.000
3.000
0.000
1.000
1.000
2.000
3.000
3.000
1.000
2.000
2.000
2.000
2.000
5.000
2.000
1.000
6.000
2.000
2.000
3.000
3.000
2.000
2.000
4.000
4.000
6.000
0.000
3.000
2.000
4.000
2.000
2.000
2.000
2.000
1.000
4.000
3.000
1.000
2.000
3.000
0.000
6.000
2.000
2.000
2.000
0.000
0.000
2.000
2.000
0.000
0.000
0.000
1.000
2.000
6.000
1.000
3.000
6.000
0.000
3.000
2.000
3.000
4.000
1.000
3.000
2.000
0.000
4.000
4.000
2.000
2.000
1.000
1.000
3.000
1.000
0.000
0.000
6.000
0.000
1.000
0.000
0.000
1.000
2.000
3.000
1.000
3.000
1.000
0.000
3.000
1.000
1.000
2.000
2.000
1.000
1.000
1.000
0.000
0.000
0.000
0.000
2.000
2.000
1.000
0.000
2.000
0.000
0.000
0.000
0.000
0.000
1.000
0.000
0.000
1.000
1.000
0.000
0.000
1.000
1.000
0.000
2.000
0.000
0.000
0.000
2.000
1.000
0.000
0.000
1.000
0.000
1.000
0.000
1.000
0.000
0.000
3.000
1.000
2.000
0.000
0.000
2.000
1.000
0.000
0.000
0.000
1.000
0.000
1.000
0.000
0.000
0.000
0.000
1.000
0.000
0.000
1.000
0.000
0.000
0.000
0.000
0.000
1.000
0.000
1.000
0.000
1.000
0.000
0.000
0.000
1.000
0.000
0.000
0.000
0.000
0.000
0.000
1.000
0.000
0.000
0.000
0.000
0.000
0.000
0.000
0.000
0.000
0.000
0.000
0.000
0.000
0.000
0.000
0.000
0.000
0.000
0.000
0.000
0.000
0.000
0.000
0.000
0.000
0.000
0.000
0.000
0.000
0.000
0.000
0.000
0.000
0.000
0.000
0.000
0.000
0.000
0.000
0.000
0.000
0.000
0.000
0.000
0.000
0.000
0.000
0.000
0.000
0.000
0.000
0.000
0.000
0.000
0.000
0.000
0.000
0.000
0.000
0.000
0.000
0.000
0.000
0.000
0.000
0.000
0.000
0.000
0.000
0.000
0.000
0.000
0.000
0.000
0.000
0.000
0.000
0.000
0.000
0.000
0.000
0.000
0.000
0.000
0.000
0.000
0.000
0.000
0.000
0.000
0.000
0.000
0.000
0.000
0.000
0.000
0.000
0.000
0.000
0.000
0.000
0.000
0.000
0.000
0.000
0.000
0.000
0.000
0.000
0.000
0.000
0.000
0.000
0.000
0.000
0.000
0.000
0.000
0.000
0.000
0.000
0.000
0.000
0.000
0.000
0.000
0.000
0.000
0.000
0.000
0.000
0.000
0.000
0.000
0.000
0.000
0.000
0.000
0.000
0.000
0.000
0.000
0.000
0.000
0.000
0.000
0.000
0.000
0.000
0.000
0.000
0.000
0.000
0.000
0.000
0.000
0.000
0.000
0.000
0.000
0.000
0.000
0.000
0.000
0.000
0.000
0.000
0.000
0.000
0.000
0.000
0.000
0.000
0.000
0.000
0.000
0.000
0.000
0.000
0.000
0.000
0.000
0.000
0.000
0.000
0.000
0.000
0.000
0.000
0.000
0.000
0.000
0.000
0.000
0.000
0.000
0.000
0.000
0.000
0.000
0.000
0.000
0.000
0.000
0.000
0.000
0.000
0.000
0.000
0.000
0.000
0.000
0.000
0.000
0.000
0.000
0.000
0.000
0.000
0.000
0.000
0.000
0.000
0.000
0.000
0.000
0.000
0.000
0.000
0.000
0.000
0.000
0.000
0.000
0.000
0.000
0.000
0.000
0.000
0.000
0.000
0.000
0.000
0.000
0.000
0.000
0.000
0.000
0.000
0.000
0.000
0.000
0.000
0.000
0.000
0.000
0.000
0.000
0.000
0.000
0.000
0.000
0.000
0.000
0.000
0.000
0.000
0.000
0.000
0.000
0.000
0.000
0.000
0.000
0.000
0.000
0.000
0.000
0.000
0.000
#ENDOFDATA   :