File: data/SEM-data_2024/artifact_surfaces/P5-1777_artifact_002_analysis_lw_region/spectrum.emsa
#FORMAT      : EMSA/MAS Spectral Data File
#VERSION     : 1.0
#TITLE       : EDS Spectrum
#DATE        : 19-SEP-2024
#TIME        : 11:20
#OWNER       : Thermo Fisher Scientific Inc.
#NPOINTS     : 2048.
#NCOLUMNS    : 1.
#XUNITS      : eV
#YUNITS      : Counts
#DATATYPE    : Y
#XPERCHAN    : 9.933
#OFFSET      : -44.878
#XLABEL      : Energy
#YLABEL      : Counts
#SIGNALTYPE  : EDS
#BEAMKV      : 15.000
#AZIMANGLE-dg: 0.0
#ELEVANGLE-dg: 28.5
#LIVETIME    : 30.624
#REALTIME    : 38.392
#EDSDET      : SDUTW
##MNFWHM     : 126.3
##INSTRUMENT : MVE075582-10647-L
##SLOWTPEAK  : 0.000004000
##FASTTPEAK  : 0.000000100
##OPTICALWD  : 0.005500000
##WD         : 0.0100318
##SDDAREA    : 0.000025
##CCORR      : 260.454
##SCORR      : LIN
#SPECTRUM    : Spectral Data Starts Here
0.000
0.000
0.000
0.000
0.000
0.000
0.000
124.000
79.000
57.000
50.000
47.000
47.000
81.000
209.000
367.000
550.000
386.000
164.000
125.000
168.000
211.000
226.000
257.000
415.000
969.000
2950.000
7310.000
11317.000
8925.000
3370.000
660.000
181.000
110.000
132.000
127.000
200.000
213.000
187.000
147.000
120.000
140.000
117.000
105.000
99.000
95.000
118.000
131.000
150.000
120.000
151.000
261.000
484.000
948.000
1303.000
1142.000
608.000
264.000
119.000
135.000
109.000
125.000
152.000
195.000
220.000
249.000
184.000
165.000
115.000
134.000
137.000
131.000
134.000
239.000
557.000
1158.000
1663.000
1823.000
1308.000
709.000
351.000
202.000
139.000
151.000
165.000
355.000
956.000
2417.000
5070.000
7221.000
6966.000
4658.000
2292.000
986.000
490.000
326.000
208.000
118.000
98.000
70.000
64.000
54.000
75.000
78.000
64.000
79.000
61.000
62.000
56.000
58.000
49.000
68.000
64.000
70.000
56.000
83.000
70.000
53.000
63.000
61.000
50.000
51.000
68.000
53.000
58.000
47.000
46.000
54.000
61.000
42.000
57.000
51.000
61.000
43.000
60.000
51.000
57.000
56.000
55.000
42.000
42.000
46.000
51.000
54.000
42.000
52.000
46.000
35.000
43.000
32.000
38.000
43.000
49.000
44.000
28.000
37.000
39.000
36.000
44.000
43.000
37.000
32.000
47.000
41.000
42.000
61.000
76.000
82.000
96.000
118.000
118.000
72.000
63.000
54.000
42.000
30.000
36.000
37.000
39.000
39.000
32.000
50.000
47.000
45.000
40.000
47.000
51.000
54.000
63.000
54.000
42.000
41.000
32.000
32.000
36.000
31.000
27.000
31.000
32.000
39.000
34.000
28.000
35.000
33.000
26.000
31.000
34.000
22.000
28.000
30.000
29.000
29.000
26.000
45.000
20.000
28.000
26.000
38.000
27.000
24.000
32.000
28.000
24.000
21.000
29.000
31.000
33.000
56.000
38.000
30.000
35.000
38.000
39.000
25.000
19.000
32.000
18.000
28.000
24.000
24.000
32.000
23.000
16.000
20.000
27.000
26.000
25.000
29.000
33.000
26.000
24.000
27.000
36.000
26.000
29.000
28.000
14.000
20.000
24.000
27.000
25.000
21.000
22.000
24.000
15.000
15.000
24.000
26.000
15.000
22.000
19.000
26.000
35.000
22.000
27.000
15.000
18.000
15.000
24.000
21.000
25.000
19.000
23.000
20.000
18.000
23.000
20.000
18.000
20.000
18.000
15.000
20.000
19.000
16.000
23.000
14.000
18.000
14.000
13.000
15.000
23.000
21.000
18.000
21.000
20.000
17.000
18.000
17.000
21.000
16.000
18.000
14.000
20.000
10.000
17.000
13.000
25.000
17.000
22.000
39.000
28.000
36.000
34.000
46.000
62.000
50.000
42.000
48.000
21.000
24.000
16.000
17.000
13.000
12.000
14.000
17.000
8.000
16.000
9.000
14.000
16.000
18.000
19.000
19.000
17.000
13.000
18.000
11.000
13.000
13.000
17.000
19.000
17.000
10.000
19.000
13.000
6.000
18.000
16.000
18.000
17.000
14.000
18.000
17.000
9.000
13.000
17.000
7.000
16.000
6.000
11.000
9.000
13.000
12.000
13.000
11.000
8.000
14.000
6.000
13.000
8.000
7.000
11.000
9.000
8.000
11.000
8.000
15.000
13.000
8.000
10.000
10.000
13.000
14.000
11.000
13.000
15.000
6.000
9.000
14.000
9.000
13.000
10.000
8.000
13.000
8.000
6.000
7.000
9.000
6.000
13.000
8.000
7.000
9.000
9.000
6.000
10.000
9.000
5.000
13.000
8.000
10.000
7.000
8.000
13.000
5.000
11.000
9.000
4.000
14.000
7.000
8.000
5.000
13.000
9.000
9.000
10.000
4.000
6.000
11.000
8.000
13.000
9.000
5.000
7.000
6.000
8.000
11.000
7.000
7.000
6.000
10.000
3.000
7.000
8.000
6.000
6.000
7.000
12.000
9.000
8.000
4.000
5.000
7.000
4.000
5.000
4.000
6.000
6.000
5.000
10.000
6.000
5.000
6.000
5.000
7.000
4.000
3.000
5.000
4.000
5.000
9.000
6.000
8.000
8.000
5.000
8.000
7.000
6.000
10.000
8.000
5.000
4.000
3.000
7.000
6.000
5.000
13.000
4.000
5.000
5.000
5.000
2.000
7.000
3.000
3.000
8.000
4.000
7.000
7.000
6.000
2.000
4.000
3.000
7.000
2.000
5.000
4.000
5.000
8.000
4.000
7.000
11.000
6.000
3.000
6.000
3.000
7.000
8.000
5.000
4.000
6.000
4.000
4.000
4.000
1.000
5.000
3.000
5.000
5.000
3.000
5.000
1.000
4.000
1.000
3.000
6.000
3.000
6.000
2.000
3.000
3.000
3.000
5.000
1.000
3.000
5.000
4.000
3.000
1.000
3.000
2.000
3.000
7.000
6.000
2.000
4.000
2.000
2.000
4.000
0.000
4.000
2.000
4.000
4.000
3.000
5.000
4.000
1.000
3.000
3.000
4.000
2.000
3.000
2.000
4.000
6.000
3.000
1.000
3.000
1.000
0.000
2.000
1.000
4.000
1.000
4.000
3.000
1.000
1.000
1.000
4.000
1.000
2.000
2.000
4.000
1.000
1.000
0.000
3.000
3.000
0.000
3.000
6.000
2.000
3.000
0.000
0.000
2.000
1.000
2.000
1.000
2.000
0.000
2.000
3.000
0.000
2.000
2.000
2.000
5.000
4.000
3.000
2.000
2.000
1.000
1.000
1.000
0.000
6.000
2.000
0.000
1.000
0.000
1.000
0.000
2.000
3.000
0.000
1.000
2.000
0.000
1.000
2.000
1.000
1.000
1.000
0.000
0.000
2.000
0.000
0.000
2.000
0.000
1.000
1.000
0.000
0.000
1.000
0.000
1.000
2.000
2.000
0.000
0.000
2.000
0.000
1.000
1.000
3.000
1.000
1.000
1.000
1.000
0.000
2.000
1.000
0.000
0.000
0.000
1.000
0.000
0.000
1.000
1.000
0.000
1.000
0.000
1.000
1.000
0.000
0.000
0.000
1.000
0.000
1.000
0.000
0.000
0.000
0.000
1.000
0.000
0.000
2.000
0.000
3.000
1.000
0.000
0.000
0.000
0.000
0.000
0.000
1.000
0.000
0.000
0.000
0.000
0.000
0.000
1.000
0.000
0.000
0.000
0.000
0.000
0.000
0.000
0.000
1.000
0.000
0.000
0.000
0.000
0.000
0.000
0.000
0.000
0.000
0.000
0.000
0.000
0.000
0.000
0.000
0.000
0.000
0.000
0.000
0.000
0.000
0.000
0.000
0.000
0.000
0.000
0.000
0.000
0.000
0.000
0.000
0.000
0.000
0.000
0.000
0.000
0.000
0.000
0.000
0.000
0.000
0.000
0.000
0.000
0.000
0.000
0.000
0.000
0.000
0.000
0.000
0.000
0.000
0.000
0.000
0.000
0.000
0.000
0.000
0.000
0.000
0.000
0.000
0.000
0.000
0.000
0.000
0.000
0.000
0.000
0.000
0.000
0.000
0.000
0.000
0.000
0.000
0.000
0.000
0.000
0.000
0.000
0.000
0.000
0.000
0.000
0.000
0.000
0.000
0.000
0.000
0.000
0.000
0.000
0.000
0.000
0.000
0.000
0.000
0.000
0.000
0.000
0.000
0.000
0.000
0.000
0.000
0.000
0.000
0.000
0.000
0.000
0.000
0.000
0.000
0.000
0.000
0.000
0.000
0.000
0.000
0.000
0.000
0.000
0.000
0.000
0.000
0.000
0.000
0.000
0.000
0.000
0.000
0.000
0.000
0.000
0.000
0.000
0.000
0.000
0.000
0.000
0.000
0.000
0.000
0.000
0.000
0.000
0.000
0.000
0.000
0.000
0.000
0.000
0.000
0.000
0.000
0.000
0.000
0.000
0.000
0.000
0.000
0.000
0.000
0.000
0.000
0.000
0.000
0.000
0.000
0.000
0.000
0.000
0.000
0.000
0.000
0.000
0.000
0.000
0.000
0.000
0.000
0.000
0.000
0.000
0.000
0.000
0.000
0.000
0.000
0.000
0.000
0.000
0.000
0.000
0.000
0.000
0.000
0.000
0.000
0.000
0.000
0.000
0.000
0.000
0.000
0.000
0.000
0.000
0.000
0.000
0.000
0.000
0.000
0.000
0.000
0.000
0.000
0.000
0.000
0.000
0.000
0.000
0.000
0.000
0.000
0.000
0.000
0.000
0.000
0.000
0.000
0.000
0.000
0.000
0.000
0.000
0.000
0.000
0.000
0.000
0.000
0.000
0.000
0.000
0.000
0.000
0.000
0.000
0.000
0.000
0.000
0.000
0.000
0.000
0.000
0.000
0.000
0.000
0.000
0.000
0.000
0.000
0.000
0.000
0.000
0.000
0.000
0.000
0.000
0.000
0.000
0.000
0.000
0.000
0.000
0.000
0.000
0.000
0.000
0.000
0.000
0.000
0.000
#ENDOFDATA   :