File: data/SEM-data_2024/artifact_surfaces/P1-495_artifact_001_analysis_mw_region/spectrum.emsa
#FORMAT      : EMSA/MAS Spectral Data File
#VERSION     : 1.0
#TITLE       : EDS Spectrum
#DATE        : 19-SEP-2024
#TIME        : 11:20
#OWNER       : Thermo Fisher Scientific Inc.
#NPOINTS     : 2048.
#NCOLUMNS    : 1.
#XUNITS      : eV
#YUNITS      : Counts
#DATATYPE    : Y
#XPERCHAN    : 9.933
#OFFSET      : -44.878
#XLABEL      : Energy
#YLABEL      : Counts
#SIGNALTYPE  : EDS
#BEAMKV      : 15.000
#AZIMANGLE-dg: 0.0
#ELEVANGLE-dg: 28.5
#LIVETIME    : 30.342
#REALTIME    : 38.160
#EDSDET      : SDUTW
##MNFWHM     : 126.3
##INSTRUMENT : MVE075582-10647-L
##SLOWTPEAK  : 0.000004000
##FASTTPEAK  : 0.000000100
##OPTICALWD  : 0.005500000
##WD         : 0.008395785
##SDDAREA    : 0.000025
##CCORR      : 260.454
##SCORR      : LIN
#SPECTRUM    : Spectral Data Starts Here
0.000
0.000
0.000
0.000
0.000
0.000
0.000
61.000
58.000
43.000
49.000
36.000
34.000
71.000
191.000
376.000
508.000
378.000
169.000
99.000
136.000
177.000
198.000
217.000
311.000
752.000
2512.000
6007.000
9054.000
7133.000
2590.000
539.000
170.000
122.000
119.000
134.000
226.000
289.000
270.000
193.000
123.000
94.000
80.000
105.000
91.000
108.000
103.000
99.000
114.000
115.000
137.000
169.000
328.000
512.000
781.000
644.000
389.000
196.000
119.000
120.000
124.000
120.000
131.000
161.000
234.000
219.000
206.000
149.000
148.000
134.000
149.000
148.000
160.000
238.000
483.000
895.000
1374.000
1357.000
1007.000
550.000
305.000
199.000
171.000
197.000
237.000
395.000
1188.000
3048.000
6089.000
8427.000
8155.000
5516.000
2671.000
1170.000
625.000
357.000
228.000
158.000
110.000
63.000
104.000
118.000
129.000
141.000
118.000
116.000
89.000
69.000
90.000
72.000
71.000
64.000
65.000
87.000
77.000
67.000
87.000
88.000
100.000
85.000
86.000
90.000
74.000
78.000
67.000
75.000
63.000
65.000
77.000
63.000
70.000
65.000
66.000
79.000
78.000
90.000
67.000
65.000
64.000
55.000
66.000
70.000
78.000
53.000
68.000
56.000
62.000
60.000
58.000
55.000
59.000
59.000
62.000
59.000
55.000
47.000
55.000
63.000
58.000
65.000
59.000
64.000
52.000
59.000
62.000
80.000
101.000
139.000
161.000
180.000
153.000
114.000
96.000
73.000
56.000
66.000
57.000
70.000
47.000
45.000
53.000
44.000
68.000
74.000
81.000
63.000
72.000
90.000
78.000
89.000
79.000
62.000
52.000
36.000
38.000
41.000
45.000
43.000
46.000
56.000
40.000
45.000
40.000
36.000
39.000
51.000
41.000
31.000
46.000
45.000
47.000
40.000
41.000
44.000
40.000
47.000
37.000
35.000
40.000
40.000
43.000
42.000
42.000
41.000
47.000
39.000
48.000
48.000
45.000
40.000
52.000
42.000
44.000
33.000
28.000
37.000
34.000
41.000
43.000
34.000
33.000
40.000
36.000
26.000
39.000
39.000
50.000
30.000
41.000
29.000
23.000
29.000
45.000
31.000
41.000
35.000
29.000
34.000
29.000
33.000
30.000
29.000
30.000
31.000
29.000
43.000
35.000
30.000
39.000
27.000
30.000
21.000
22.000
29.000
29.000
29.000
26.000
33.000
34.000
32.000
35.000
29.000
24.000
36.000
25.000
20.000
30.000
26.000
21.000
28.000
31.000
24.000
40.000
37.000
26.000
24.000
24.000
28.000
30.000
20.000
29.000
25.000
33.000
23.000
30.000
24.000
17.000
27.000
26.000
26.000
21.000
27.000
25.000
32.000
22.000
27.000
17.000
29.000
46.000
46.000
68.000
91.000
127.000
151.000
173.000
154.000
129.000
96.000
78.000
53.000
32.000
27.000
24.000
24.000
19.000
25.000
24.000
26.000
20.000
21.000
18.000
24.000
22.000
23.000
18.000
23.000
17.000
18.000
16.000
30.000
26.000
23.000
20.000
24.000
30.000
30.000
23.000
28.000
39.000
21.000
24.000
28.000
20.000
15.000
19.000
21.000
16.000
16.000
21.000
15.000
18.000
15.000
22.000
20.000
18.000
15.000
9.000
13.000
21.000
15.000
20.000
17.000
20.000
13.000
20.000
12.000
27.000
22.000
20.000
21.000
7.000
17.000
13.000
16.000
17.000
17.000
16.000
14.000
13.000
10.000
16.000
14.000
12.000
19.000
20.000
9.000
10.000
10.000
7.000
11.000
16.000
13.000
11.000
12.000
7.000
15.000
8.000
9.000
12.000
18.000
11.000
13.000
13.000
10.000
14.000
13.000
20.000
20.000
10.000
12.000
12.000
16.000
4.000
12.000
9.000
6.000
9.000
6.000
11.000
10.000
4.000
15.000
9.000
8.000
9.000
11.000
10.000
15.000
19.000
12.000
10.000
12.000
10.000
14.000
8.000
7.000
10.000
6.000
11.000
11.000
9.000
9.000
6.000
11.000
4.000
5.000
10.000
10.000
5.000
8.000
8.000
13.000
7.000
7.000
11.000
12.000
4.000
4.000
7.000
4.000
4.000
13.000
9.000
6.000
10.000
6.000
6.000
3.000
6.000
9.000
8.000
6.000
9.000
3.000
8.000
6.000
11.000
9.000
8.000
12.000
13.000
12.000
12.000
6.000
13.000
9.000
7.000
10.000
5.000
6.000
6.000
3.000
6.000
4.000
10.000
5.000
7.000
8.000
10.000
5.000
7.000
6.000
8.000
5.000
5.000
2.000
5.000
9.000
5.000
5.000
4.000
2.000
2.000
4.000
7.000
6.000
5.000
6.000
6.000
4.000
2.000
3.000
10.000
6.000
3.000
4.000
4.000
5.000
3.000
5.000
4.000
6.000
6.000
2.000
5.000
6.000
6.000
4.000
3.000
6.000
5.000
3.000
4.000
4.000
5.000
4.000
2.000
4.000
2.000
5.000
7.000
9.000
4.000
4.000
2.000
6.000
1.000
3.000
4.000
3.000
6.000
0.000
2.000
3.000
5.000
4.000
3.000
4.000
5.000
2.000
3.000
3.000
4.000
4.000
7.000
1.000
5.000
3.000
2.000
6.000
5.000
3.000
0.000
2.000
2.000
2.000
3.000
2.000
1.000
2.000
1.000
2.000
2.000
3.000
1.000
0.000
2.000
2.000
2.000
0.000
2.000
2.000
3.000
4.000
2.000
3.000
1.000
1.000
1.000
1.000
1.000
1.000
1.000
0.000
1.000
2.000
1.000
1.000
4.000
4.000
0.000
3.000
0.000
0.000
2.000
1.000
5.000
2.000
3.000
3.000
0.000
3.000
0.000
1.000
4.000
1.000
0.000
3.000
1.000
0.000
0.000
1.000
0.000
0.000
2.000
0.000
0.000
1.000
0.000
1.000
2.000
0.000
2.000
2.000
1.000
0.000
2.000
0.000
2.000
0.000
1.000
0.000
1.000
1.000
0.000
0.000
0.000
0.000
0.000
0.000
0.000
0.000
1.000
2.000
0.000
0.000
0.000
1.000
0.000
0.000
1.000
0.000
0.000
0.000
0.000
0.000
0.000
0.000
0.000
0.000
0.000
0.000
0.000
1.000
0.000
1.000
0.000
0.000
0.000
0.000
0.000
0.000
0.000
0.000
0.000
0.000
0.000
0.000
0.000
0.000
0.000
0.000
0.000
0.000
0.000
0.000
0.000
0.000
0.000
0.000
0.000
0.000
0.000
0.000
0.000
0.000
0.000
0.000
0.000
0.000
0.000
0.000
0.000
0.000
0.000
0.000
0.000
0.000
0.000
0.000
0.000
0.000
0.000
0.000
0.000
0.000
0.000
0.000
0.000
0.000
0.000
0.000
0.000
0.000
0.000
0.000
0.000
0.000
0.000
0.000
0.000
0.000
0.000
0.000
0.000
0.000
0.000
0.000
0.000
0.000
0.000
0.000
0.000
0.000
0.000
0.000
0.000
0.000
0.000
0.000
0.000
0.000
0.000
0.000
0.000
0.000
0.000
0.000
0.000
0.000
0.000
0.000
0.000
0.000
0.000
0.000
0.000
0.000
0.000
0.000
0.000
0.000
0.000
0.000
0.000
0.000
0.000
0.000
0.000
0.000
0.000
0.000
0.000
0.000
0.000
0.000
0.000
0.000
0.000
0.000
0.000
0.000
0.000
0.000
0.000
0.000
0.000
0.000
0.000
0.000
0.000
0.000
0.000
0.000
0.000
0.000
0.000
0.000
0.000
0.000
0.000
0.000
0.000
0.000
0.000
0.000
0.000
0.000
0.000
0.000
0.000
0.000
0.000
0.000
0.000
0.000
0.000
0.000
0.000
0.000
0.000
0.000
0.000
0.000
0.000
0.000
0.000
0.000
0.000
0.000
0.000
0.000
0.000
0.000
0.000
0.000
0.000
0.000
0.000
0.000
0.000
0.000
0.000
0.000
0.000
0.000
0.000
0.000
0.000
0.000
0.000
0.000
0.000
0.000
0.000
0.000
0.000
0.000
0.000
0.000
0.000
0.000
0.000
0.000
0.000
0.000
0.000
0.000
0.000
0.000
0.000
0.000
0.000
0.000
0.000
0.000
0.000
0.000
0.000
0.000
0.000
0.000
0.000
0.000
0.000
0.000
0.000
0.000
0.000
0.000
0.000
0.000
0.000
0.000
0.000
0.000
0.000
0.000
0.000
0.000
0.000
0.000
0.000
0.000
0.000
0.000
0.000
0.000
0.000
0.000
0.000
0.000
0.000
0.000
0.000
0.000
0.000
0.000
0.000
0.000
0.000
0.000
0.000
0.000
0.000
0.000
0.000
0.000
0.000
0.000
0.000
0.000
0.000
0.000
0.000
0.000
0.000
0.000
0.000
0.000
0.000
0.000
0.000
0.000
0.000
0.000
0.000
0.000
0.000
0.000
0.000
0.000
0.000
0.000
0.000
0.000
0.000
0.000
0.000
0.000
0.000
0.000
0.000
0.000
0.000
#ENDOFDATA   :