File: data/SEM-data_2024/artifact_surfaces/P1-83_artifact_002_analysis_lw_region/spectrum.emsa
#FORMAT      : EMSA/MAS Spectral Data File
#VERSION     : 1.0
#TITLE       : EDS Spectrum
#DATE        : 19-SEP-2024
#TIME        : 11:20
#OWNER       : Thermo Fisher Scientific Inc.
#NPOINTS     : 2048.
#NCOLUMNS    : 1.
#XUNITS      : eV
#YUNITS      : Counts
#DATATYPE    : Y
#XPERCHAN    : 9.933
#OFFSET      : -44.878
#XLABEL      : Energy
#YLABEL      : Counts
#SIGNALTYPE  : EDS
#BEAMKV      : 15.000
#AZIMANGLE-dg: 0.0
#ELEVANGLE-dg: 28.5
#LIVETIME    : 35.263
#REALTIME    : 42.961
#EDSDET      : SDUTW
##MNFWHM     : 126.3
##INSTRUMENT : MVE075582-10647-L
##SLOWTPEAK  : 0.000004000
##FASTTPEAK  : 0.000000100
##OPTICALWD  : 0.005500000
##WD         : 0.009511501
##SDDAREA    : 0.000025
##CCORR      : 260.454
##SCORR      : LIN
#SPECTRUM    : Spectral Data Starts Here
0.000
0.000
0.000
0.000
0.000
0.000
0.000
83.000
57.000
49.000
52.000
64.000
68.000
153.000
399.000
886.000
1265.000
888.000
294.000
137.000
143.000
179.000
227.000
195.000
275.000
763.000
2328.000
5818.000
9104.000
7056.000
2665.000
560.000
118.000
101.000
108.000
107.000
149.000
170.000
147.000
106.000
113.000
109.000
95.000
94.000
114.000
128.000
136.000
115.000
125.000
138.000
144.000
227.000
492.000
927.000
1169.000
1047.000
584.000
275.000
156.000
138.000
114.000
123.000
127.000
159.000
214.000
233.000
230.000
154.000
146.000
141.000
139.000
147.000
206.000
260.000
523.000
1045.000
1608.000
1675.000
1298.000
674.000
339.000
213.000
154.000
162.000
179.000
373.000
1072.000
2793.000
5868.000
8150.000
8017.000
5381.000
2561.000
1046.000
495.000
347.000
217.000
146.000
107.000
80.000
67.000
59.000
86.000
77.000
86.000
67.000
59.000
68.000
60.000
45.000
79.000
69.000
66.000
70.000
63.000
73.000
82.000
57.000
80.000
74.000
82.000
71.000
61.000
72.000
62.000
59.000
58.000
61.000
67.000
64.000
64.000
87.000
105.000
111.000
110.000
82.000
94.000
73.000
73.000
62.000
61.000
48.000
53.000
59.000
52.000
65.000
69.000
67.000
59.000
46.000
67.000
60.000
52.000
51.000
50.000
45.000
53.000
46.000
46.000
50.000
52.000
53.000
57.000
49.000
52.000
55.000
73.000
91.000
105.000
111.000
77.000
72.000
56.000
57.000
42.000
35.000
40.000
41.000
41.000
38.000
53.000
52.000
49.000
48.000
46.000
73.000
50.000
59.000
66.000
70.000
59.000
57.000
43.000
43.000
47.000
32.000
31.000
41.000
36.000
33.000
36.000
33.000
40.000
36.000
42.000
34.000
39.000
31.000
43.000
31.000
40.000
35.000
34.000
35.000
39.000
29.000
37.000
31.000
37.000
29.000
27.000
39.000
37.000
41.000
29.000
38.000
32.000
50.000
47.000
43.000
49.000
24.000
38.000
35.000
32.000
24.000
26.000
32.000
29.000
26.000
30.000
24.000
32.000
24.000
23.000
27.000
23.000
36.000
24.000
33.000
35.000
22.000
29.000
24.000
23.000
26.000
24.000
32.000
20.000
33.000
25.000
28.000
24.000
30.000
18.000
31.000
28.000
22.000
29.000
21.000
30.000
27.000
27.000
32.000
20.000
24.000
31.000
32.000
22.000
32.000
24.000
27.000
16.000
14.000
27.000
17.000
14.000
26.000
19.000
37.000
21.000
33.000
31.000
19.000
30.000
23.000
22.000
22.000
22.000
25.000
23.000
18.000
23.000
21.000
33.000
26.000
23.000
18.000
16.000
16.000
21.000
19.000
17.000
28.000
13.000
18.000
20.000
23.000
22.000
20.000
37.000
53.000
57.000
68.000
58.000
82.000
63.000
55.000
45.000
23.000
17.000
16.000
22.000
17.000
7.000
16.000
23.000
12.000
16.000
18.000
19.000
15.000
13.000
17.000
10.000
21.000
12.000
15.000
20.000
18.000
14.000
21.000
17.000
16.000
17.000
22.000
17.000
19.000
22.000
20.000
21.000
19.000
20.000
18.000
13.000
14.000
14.000
15.000
13.000
11.000
14.000
9.000
16.000
16.000
12.000
6.000
15.000
14.000
21.000
13.000
12.000
10.000
12.000
14.000
10.000
22.000
11.000
15.000
9.000
11.000
9.000
19.000
9.000
15.000
13.000
9.000
10.000
12.000
12.000
13.000
12.000
9.000
12.000
12.000
13.000
14.000
9.000
14.000
15.000
6.000
9.000
13.000
18.000
13.000
11.000
13.000
8.000
11.000
9.000
7.000
16.000
10.000
14.000
18.000
8.000
7.000
10.000
7.000
15.000
6.000
9.000
16.000
11.000
7.000
6.000
6.000
13.000
6.000
12.000
6.000
9.000
13.000
9.000
12.000
8.000
11.000
7.000
7.000
17.000
8.000
18.000
8.000
8.000
6.000
11.000
8.000
6.000
7.000
9.000
10.000
11.000
11.000
2.000
12.000
10.000
9.000
5.000
8.000
7.000
6.000
8.000
8.000
5.000
7.000
7.000
9.000
3.000
6.000
2.000
4.000
4.000
5.000
7.000
6.000
5.000
4.000
9.000
8.000
7.000
7.000
4.000
6.000
5.000
6.000
7.000
4.000
5.000
8.000
9.000
8.000
3.000
9.000
8.000
5.000
3.000
3.000
9.000
4.000
5.000
9.000
7.000
3.000
6.000
2.000
7.000
3.000
9.000
9.000
7.000
4.000
3.000
7.000
6.000
5.000
5.000
3.000
5.000
2.000
7.000
5.000
8.000
3.000
3.000
3.000
5.000
6.000
6.000
3.000
3.000
8.000
4.000
2.000
7.000
0.000
1.000
3.000
6.000
2.000
3.000
7.000
2.000
4.000
2.000
2.000
2.000
3.000
7.000
3.000
4.000
2.000
2.000
4.000
3.000
3.000
0.000
3.000
5.000
5.000
2.000
4.000
1.000
7.000
4.000
6.000
2.000
3.000
5.000
1.000
2.000
1.000
3.000
2.000
2.000
6.000
3.000
1.000
4.000
1.000
1.000
3.000
4.000
3.000
2.000
1.000
1.000
1.000
1.000
3.000
1.000
0.000
2.000
2.000
6.000
3.000
2.000
2.000
2.000
5.000
3.000
4.000
2.000
2.000
5.000
4.000
5.000
0.000
1.000
4.000
4.000
2.000
3.000
1.000
3.000
1.000
1.000
1.000
0.000
2.000
3.000
1.000
4.000
0.000
3.000
0.000
2.000
3.000
1.000
1.000
3.000
1.000
0.000
2.000
3.000
1.000
2.000
1.000
0.000
2.000
3.000
1.000
1.000
1.000
0.000
4.000
3.000
5.000
1.000
4.000
1.000
2.000
4.000
0.000
0.000
0.000
3.000
0.000
0.000
2.000
2.000
0.000
1.000
0.000
1.000
1.000
1.000
3.000
1.000
0.000
1.000
0.000
2.000
1.000
1.000
1.000
1.000
1.000
0.000
0.000
0.000
1.000
0.000
2.000
3.000
1.000
1.000
1.000
0.000
1.000
0.000
2.000
0.000
0.000
0.000
0.000
1.000
1.000
1.000
0.000
0.000
1.000
0.000
1.000
0.000
0.000
0.000
0.000
0.000
0.000
0.000
1.000
0.000
0.000
0.000
0.000
0.000
0.000
2.000
0.000
0.000
0.000
0.000
0.000
0.000
0.000
0.000
0.000
0.000
1.000
0.000
1.000
0.000
0.000
0.000
0.000
0.000
0.000
0.000
0.000
0.000
0.000
0.000
0.000
0.000
0.000
0.000
0.000
0.000
0.000
0.000
0.000
0.000
0.000
0.000
0.000
0.000
0.000
0.000
0.000
0.000
0.000
0.000
0.000
0.000
0.000
0.000
0.000
0.000
0.000
0.000
0.000
0.000
0.000
0.000
0.000
0.000
0.000
0.000
0.000
0.000
0.000
0.000
0.000
0.000
0.000
0.000
0.000
0.000
0.000
0.000
0.000
0.000
0.000
0.000
0.000
0.000
0.000
0.000
0.000
0.000
0.000
0.000
0.000
0.000
0.000
0.000
0.000
0.000
0.000
0.000
0.000
0.000
0.000
0.000
0.000
0.000
0.000
0.000
0.000
0.000
0.000
0.000
0.000
0.000
0.000
0.000
0.000
0.000
0.000
0.000
0.000
0.000
0.000
0.000
0.000
0.000
0.000
0.000
0.000
0.000
0.000
0.000
0.000
0.000
0.000
0.000
0.000
0.000
0.000
0.000
0.000
0.000
0.000
0.000
0.000
0.000
0.000
0.000
0.000
0.000
0.000
0.000
0.000
0.000
0.000
0.000
0.000
0.000
0.000
0.000
0.000
0.000
0.000
0.000
0.000
0.000
0.000
0.000
0.000
0.000
0.000
0.000
0.000
0.000
0.000
0.000
0.000
0.000
0.000
0.000
0.000
0.000
0.000
0.000
0.000
0.000
0.000
0.000
0.000
0.000
0.000
0.000
0.000
0.000
0.000
0.000
0.000
0.000
0.000
0.000
0.000
0.000
0.000
0.000
0.000
0.000
0.000
0.000
0.000
0.000
0.000
0.000
0.000
0.000
0.000
0.000
0.000
0.000
0.000
0.000
0.000
0.000
0.000
0.000
0.000
0.000
0.000
0.000
0.000
0.000
0.000
0.000
0.000
0.000
0.000
0.000
0.000
0.000
0.000
0.000
0.000
0.000
0.000
0.000
0.000
0.000
0.000
0.000
0.000
0.000
0.000
0.000
0.000
0.000
0.000
0.000
0.000
0.000
0.000
0.000
0.000
0.000
0.000
0.000
0.000
0.000
0.000
0.000
0.000
0.000
0.000
0.000
0.000
0.000
0.000
0.000
0.000
0.000
0.000
0.000
0.000
0.000
0.000
0.000
0.000
0.000
0.000
0.000
0.000
0.000
0.000
0.000
0.000
0.000
0.000
0.000
0.000
0.000
0.000
0.000
0.000
0.000
0.000
0.000
0.000
0.000
#ENDOFDATA   :