File: data/SEM-data_2024/cross_sections/P5-1566_medial_analysis_1_map/spectrum.emsa
#FORMAT      : EMSA/MAS Spectral Data File
#VERSION     : 1.0
#TITLE       : EDS Spectrum
#DATE        : 19-SEP-2024
#TIME        : 14:36
#OWNER       : Thermo Fisher Scientific Inc.
#NPOINTS     : 2048.
#NCOLUMNS    : 1.
#XUNITS      : eV
#YUNITS      : Counts
#DATATYPE    : Y
#XPERCHAN    : 9.903
#OFFSET      : -56.900
#XLABEL      : Energy
#YLABEL      : Counts
#SIGNALTYPE  : EDS
#BEAMKV      : 15.000
#AZIMANGLE-dg: 0.0
#ELEVANGLE-dg: 28.5
#LIVETIME    : 110.409
#REALTIME    : 115.458
#EDSDET      : SDUTW
##MNFWHM     : 129.6
##INSTRUMENT : MVE075582-10647-L
##SLOWTPEAK  : 0.000001000
##FASTTPEAK  : 0.000000100
##OPTICALWD  : 0.005500000
##WD         : 0.006271999
##SDDAREA    : 0.000025
##CCORR      : 260.454
##SCORR      : LIN
#SPECTRUM    : Spectral Data Starts Here
0.000
0.000
0.000
0.000
0.000
0.000
0.000
0.000
0.000
0.000
0.000
0.000
0.000
170.000
1715.000
4774.000
9494.000
12763.000
9309.000
3994.000
1810.000
1838.000
2383.000
2693.000
2633.000
3947.000
10293.000
28355.000
61188.000
81223.000
64956.000
29991.000
8402.000
2045.000
1051.000
1018.000
1295.000
1446.000
1699.000
1598.000
1399.000
1212.000
1164.000
1110.000
1174.000
1249.000
1246.000
1302.000
1352.000
1394.000
1482.000
1826.000
2625.000
4512.000
7508.000
9409.000
8413.000
5532.000
2955.000
1985.000
1673.000
1639.000
1773.000
1930.000
2418.000
3006.000
3324.000
2980.000
2525.000
2023.000
1952.000
1906.000
2173.000
2429.000
4280.000
8451.000
16123.000
23667.000
25338.000
19971.000
11864.000
6403.000
3640.000
2709.000
2502.000
3129.000
6145.000
16088.000
38733.000
71695.000
99236.000
99925.000
74064.000
41374.000
19340.000
9643.000
5490.000
3435.000
2215.000
1476.000
1235.000
1161.000
1149.000
1124.000
1197.000
1211.000
1128.000
1078.000
1017.000
1034.000
1043.000
1019.000
1003.000
1068.000
1161.000
1265.000
1336.000
1512.000
1647.000
1625.000
1449.000
1351.000
1130.000
1026.000
1008.000
998.000
950.000
1047.000
1042.000
1001.000
927.000
956.000
1077.000
1181.000
1253.000
1407.000
1342.000
1170.000
1069.000
999.000
963.000
988.000
954.000
918.000
947.000
992.000
901.000
878.000
847.000
864.000
889.000
792.000
863.000
811.000
849.000
825.000
837.000
864.000
886.000
843.000
830.000
834.000
867.000
901.000
969.000
1038.000
1462.000
1946.000
2844.000
3590.000
3953.000
3756.000
3048.000
2065.000
1510.000
1115.000
923.000
913.000
923.000
980.000
986.000
995.000
1065.000
1157.000
1199.000
1340.000
1549.000
1869.000
2159.000
2276.000
2022.000
1773.000
1388.000
1032.000
804.000
777.000
786.000
685.000
673.000
648.000
664.000
692.000
734.000
740.000
791.000
816.000
840.000
813.000
726.000
692.000
702.000
631.000
633.000
628.000
611.000
600.000
577.000
617.000
577.000
605.000
572.000
585.000
581.000
621.000
565.000
630.000
627.000
730.000
746.000
827.000
868.000
853.000
796.000
688.000
644.000
571.000
545.000
563.000
532.000
550.000
535.000
546.000
515.000
566.000
499.000
559.000
553.000
552.000
598.000
533.000
592.000
518.000
542.000
573.000
567.000
511.000
515.000
483.000
492.000
471.000
528.000
506.000
480.000
494.000
493.000
491.000
504.000
496.000
452.000
481.000
429.000
454.000
488.000
412.000
421.000
422.000
472.000
452.000
452.000
441.000
445.000
406.000
415.000
422.000
414.000
416.000
384.000
430.000
402.000
403.000
433.000
414.000
383.000
385.000
422.000
356.000
413.000
399.000
465.000
422.000
465.000
431.000
452.000
421.000
368.000
399.000
370.000
400.000
385.000
349.000
381.000
376.000
363.000
359.000
338.000
335.000
366.000
353.000
399.000
384.000
501.000
601.000
820.000
1018.000
1252.000
1406.000
1449.000
1391.000
1180.000
941.000
747.000
544.000
428.000
391.000
360.000
371.000
285.000
345.000
324.000
343.000
323.000
318.000
304.000
306.000
320.000
288.000
352.000
286.000
302.000
268.000
292.000
289.000
318.000
267.000
347.000
388.000
397.000
430.000
409.000
405.000
410.000
377.000
365.000
318.000
298.000
272.000
296.000
273.000
271.000
260.000
258.000
261.000
263.000
267.000
263.000
248.000
263.000
288.000
252.000
259.000
254.000
256.000
264.000
242.000
235.000
243.000
247.000
199.000
236.000
228.000
243.000
237.000
219.000
242.000
225.000
219.000
226.000
217.000
209.000
209.000
242.000
234.000
214.000
237.000
238.000
209.000
226.000
218.000
200.000
216.000
220.000
245.000
178.000
195.000
195.000
242.000
220.000
210.000
207.000
184.000
179.000
182.000
175.000
182.000
219.000
175.000
192.000
188.000
174.000
195.000
169.000
202.000
200.000
172.000
204.000
191.000
185.000
173.000
198.000
174.000
175.000
188.000
192.000
185.000
183.000
178.000
172.000
182.000
165.000
171.000
181.000
178.000
144.000
154.000
179.000
150.000
163.000
164.000
144.000
152.000
183.000
162.000
163.000
169.000
143.000
146.000
166.000
152.000
154.000
159.000
138.000
130.000
173.000
132.000
160.000
143.000
125.000
132.000
151.000
124.000
145.000
148.000
131.000
143.000
124.000
136.000
124.000
129.000
142.000
108.000
128.000
139.000
127.000
119.000
130.000
107.000
146.000
123.000
110.000
115.000
126.000
111.000
93.000
111.000
134.000
127.000
112.000
93.000
114.000
115.000
112.000
111.000
114.000
122.000
104.000
104.000
101.000
109.000
95.000
80.000
101.000
101.000
95.000
105.000
116.000
101.000
117.000
86.000
78.000
104.000
113.000
81.000
125.000
91.000
94.000
91.000
88.000
86.000
97.000
70.000
85.000
75.000
70.000
89.000
80.000
75.000
78.000
79.000
77.000
105.000
73.000
91.000
82.000
87.000
72.000
84.000
80.000
88.000
85.000
77.000
81.000
77.000
84.000
63.000
84.000
67.000
92.000
66.000
80.000
72.000
58.000
73.000
77.000
71.000
67.000
80.000
70.000
62.000
56.000
73.000
70.000
65.000
62.000
64.000
62.000
50.000
72.000
54.000
50.000
68.000
47.000
57.000
52.000
60.000
49.000
51.000
51.000
58.000
54.000
60.000
59.000
64.000
48.000
54.000
37.000
47.000
52.000
46.000
48.000
36.000
47.000
28.000
45.000
49.000
44.000
40.000
43.000
42.000
41.000
50.000
36.000
37.000
44.000
43.000
37.000
45.000
28.000
31.000
29.000
36.000
43.000
23.000
33.000
33.000
44.000
37.000
37.000
35.000
26.000
45.000
25.000
38.000
32.000
26.000
19.000
26.000
34.000
26.000
28.000
26.000
26.000
27.000
30.000
23.000
18.000
23.000
17.000
21.000
26.000
22.000
21.000
21.000
18.000
21.000
27.000
21.000
32.000
21.000
17.000
21.000
12.000
17.000
16.000
7.000
10.000
18.000
18.000
23.000
16.000
18.000
16.000
16.000
20.000
21.000
15.000
15.000
18.000
16.000
9.000
8.000
12.000
13.000
13.000
10.000
15.000
13.000
16.000
13.000
13.000
12.000
6.000
11.000
11.000
5.000
8.000
12.000
7.000
11.000
11.000
9.000
6.000
10.000
7.000
11.000
4.000
4.000
2.000
7.000
11.000
6.000
4.000
5.000
5.000
2.000
5.000
3.000
3.000
0.000
4.000
1.000
3.000
3.000
5.000
2.000
4.000
3.000
5.000
2.000
0.000
1.000
1.000
0.000
1.000
1.000
0.000
0.000
2.000
1.000
0.000
0.000
0.000
1.000
2.000
0.000
1.000
0.000
1.000
0.000
0.000
1.000
1.000
0.000
0.000
1.000
0.000
1.000
0.000
0.000
0.000
0.000
0.000
0.000
1.000
0.000
0.000
0.000
0.000
0.000
0.000
0.000
0.000
0.000
1.000
0.000
1.000
0.000
0.000
0.000
0.000
0.000
0.000
0.000
0.000
1.000
0.000
0.000
0.000
0.000
0.000
0.000
1.000
0.000
0.000
0.000
0.000
0.000
0.000
0.000
0.000
0.000
0.000
0.000
0.000
0.000
0.000
0.000
0.000
0.000
0.000
0.000
0.000
0.000
0.000
0.000
2.000
0.000
0.000
0.000
0.000
0.000
0.000
1.000
0.000
0.000
0.000
0.000
0.000
0.000
0.000
0.000
0.000
0.000
0.000
0.000
1.000
0.000
0.000
0.000
0.000
0.000
0.000
0.000
0.000
0.000
0.000
0.000
0.000
0.000
0.000
0.000
0.000
0.000
0.000
0.000
0.000
0.000
0.000
0.000
0.000
0.000
0.000
0.000
0.000
0.000
0.000
0.000
0.000
0.000
0.000
0.000
1.000
0.000
0.000
0.000
0.000
0.000
0.000
0.000
0.000
0.000
0.000
0.000
0.000
0.000
0.000
0.000
0.000
0.000
0.000
0.000
0.000
0.000
0.000
0.000
0.000
0.000
0.000
0.000
0.000
0.000
0.000
0.000
0.000
0.000
0.000
0.000
0.000
0.000
0.000
0.000
0.000
0.000
0.000
0.000
0.000
0.000
0.000
0.000
0.000
0.000
0.000
0.000
0.000
0.000
0.000
0.000
0.000
0.000
0.000
0.000
0.000
0.000
0.000
0.000
1.000
0.000
0.000
0.000
0.000
0.000
0.000
0.000
0.000
0.000
0.000
0.000
0.000
0.000
0.000
0.000
0.000
0.000
0.000
0.000
0.000
0.000
0.000
0.000
0.000
0.000
0.000
0.000
0.000
0.000
0.000
0.000
0.000
0.000
0.000
0.000
0.000
0.000
0.000
0.000
0.000
0.000
0.000
0.000
0.000
0.000
0.000
0.000
0.000
0.000
0.000
0.000
0.000
0.000
0.000
0.000
0.000
0.000
0.000
0.000
0.000
0.000
0.000
0.000
0.000
0.000
0.000
0.000
0.000
0.000
0.000
0.000
0.000
0.000
0.000
0.000
0.000
0.000
0.000
0.000
0.000
#ENDOFDATA   :