File: data/SEM-data_2024/artifact_surfaces/P5-1962_artifact_002_analysis_mw_region/spectrum.emsa
#FORMAT      : EMSA/MAS Spectral Data File
#VERSION     : 1.0
#TITLE       : EDS Spectrum
#DATE        : 19-SEP-2024
#TIME        : 11:20
#OWNER       : Thermo Fisher Scientific Inc.
#NPOINTS     : 2048.
#NCOLUMNS    : 1.
#XUNITS      : eV
#YUNITS      : Counts
#DATATYPE    : Y
#XPERCHAN    : 9.933
#OFFSET      : -44.878
#XLABEL      : Energy
#YLABEL      : Counts
#SIGNALTYPE  : EDS
#BEAMKV      : 15.000
#AZIMANGLE-dg: 0.0
#ELEVANGLE-dg: 28.5
#LIVETIME    : 41.621
#REALTIME    : 51.361
#EDSDET      : SDUTW
##MNFWHM     : 126.3
##INSTRUMENT : MVE075582-10647-L
##SLOWTPEAK  : 0.000004000
##FASTTPEAK  : 0.000000100
##OPTICALWD  : 0.005500000
##WD         : 0.011119
##SDDAREA    : 0.000025
##CCORR      : 260.454
##SCORR      : LIN
#SPECTRUM    : Spectral Data Starts Here
0.000
0.000
0.000
0.000
0.000
0.000
0.000
74.000
66.000
44.000
40.000
45.000
59.000
81.000
183.000
389.000
490.000
379.000
190.000
108.000
166.000
178.000
220.000
224.000
346.000
825.000
2475.000
6426.000
9835.000
7645.000
2966.000
618.000
203.000
124.000
148.000
152.000
259.000
363.000
343.000
220.000
129.000
111.000
94.000
106.000
100.000
124.000
95.000
104.000
112.000
130.000
146.000
169.000
339.000
592.000
746.000
655.000
380.000
196.000
104.000
118.000
123.000
139.000
136.000
187.000
282.000
275.000
256.000
205.000
139.000
154.000
134.000
147.000
165.000
225.000
416.000
918.000
1406.000
1551.000
1080.000
634.000
318.000
205.000
194.000
199.000
216.000
386.000
1063.000
2813.000
5524.000
7728.000
7690.000
5180.000
2513.000
1053.000
533.000
311.000
229.000
140.000
110.000
77.000
60.000
92.000
122.000
125.000
124.000
103.000
75.000
71.000
74.000
63.000
73.000
67.000
63.000
79.000
73.000
73.000
78.000
79.000
89.000
70.000
79.000
79.000
64.000
69.000
66.000
59.000
56.000
63.000
59.000
61.000
58.000
73.000
84.000
67.000
79.000
70.000
79.000
72.000
83.000
63.000
61.000
59.000
54.000
48.000
64.000
68.000
52.000
44.000
59.000
55.000
45.000
45.000
60.000
39.000
43.000
52.000
48.000
50.000
52.000
50.000
54.000
56.000
49.000
47.000
56.000
59.000
90.000
142.000
186.000
177.000
167.000
119.000
82.000
63.000
56.000
43.000
46.000
47.000
59.000
50.000
60.000
48.000
63.000
51.000
60.000
63.000
70.000
102.000
81.000
103.000
67.000
78.000
45.000
48.000
48.000
39.000
34.000
33.000
49.000
36.000
37.000
39.000
50.000
44.000
33.000
42.000
45.000
37.000
45.000
41.000
33.000
35.000
29.000
35.000
35.000
38.000
32.000
35.000
23.000
42.000
45.000
31.000
34.000
32.000
47.000
36.000
41.000
47.000
52.000
58.000
48.000
50.000
49.000
39.000
38.000
24.000
37.000
38.000
40.000
29.000
26.000
33.000
32.000
28.000
30.000
36.000
35.000
35.000
41.000
31.000
28.000
30.000
38.000
35.000
32.000
30.000
30.000
15.000
25.000
26.000
34.000
20.000
25.000
18.000
24.000
26.000
30.000
21.000
40.000
21.000
24.000
22.000
30.000
30.000
27.000
27.000
28.000
28.000
29.000
25.000
16.000
31.000
22.000
28.000
22.000
23.000
30.000
27.000
17.000
25.000
20.000
21.000
21.000
26.000
37.000
21.000
26.000
25.000
20.000
21.000
23.000
28.000
19.000
13.000
22.000
17.000
19.000
31.000
21.000
12.000
21.000
27.000
30.000
18.000
22.000
20.000
29.000
23.000
35.000
45.000
65.000
108.000
139.000
148.000
183.000
152.000
151.000
111.000
62.000
53.000
34.000
30.000
15.000
25.000
15.000
26.000
18.000
12.000
19.000
9.000
12.000
16.000
15.000
20.000
13.000
24.000
14.000
16.000
7.000
13.000
17.000
24.000
19.000
23.000
29.000
34.000
36.000
21.000
29.000
24.000
22.000
17.000
17.000
13.000
15.000
14.000
13.000
20.000
13.000
9.000
12.000
12.000
20.000
14.000
19.000
15.000
12.000
15.000
15.000
16.000
12.000
20.000
10.000
15.000
15.000
13.000
15.000
19.000
12.000
14.000
17.000
11.000
15.000
16.000
10.000
11.000
21.000
6.000
15.000
13.000
13.000
12.000
13.000
9.000
10.000
13.000
13.000
14.000
19.000
18.000
12.000
14.000
18.000
15.000
11.000
16.000
14.000
4.000
14.000
13.000
10.000
5.000
10.000
11.000
10.000
7.000
14.000
11.000
11.000
7.000
7.000
11.000
9.000
10.000
16.000
18.000
7.000
7.000
9.000
7.000
12.000
3.000
15.000
8.000
8.000
9.000
13.000
9.000
13.000
7.000
4.000
9.000
11.000
7.000
8.000
8.000
9.000
10.000
12.000
13.000
10.000
11.000
3.000
7.000
2.000
4.000
6.000
5.000
4.000
7.000
6.000
10.000
10.000
6.000
5.000
3.000
8.000
11.000
6.000
6.000
7.000
14.000
6.000
12.000
5.000
6.000
4.000
10.000
3.000
3.000
4.000
4.000
9.000
9.000
4.000
4.000
9.000
7.000
6.000
7.000
6.000
8.000
10.000
5.000
10.000
4.000
8.000
4.000
4.000
3.000
7.000
3.000
5.000
12.000
4.000
4.000
6.000
8.000
3.000
10.000
7.000
8.000
4.000
5.000
6.000
5.000
4.000
3.000
4.000
2.000
8.000
3.000
2.000
8.000
3.000
2.000
9.000
6.000
2.000
2.000
6.000
7.000
4.000
6.000
3.000
3.000
7.000
7.000
2.000
4.000
4.000
5.000
4.000
1.000
4.000
6.000
2.000
3.000
3.000
6.000
3.000
3.000
7.000
1.000
4.000
4.000
4.000
3.000
4.000
3.000
5.000
5.000
4.000
5.000
3.000
3.000
2.000
3.000
2.000
4.000
0.000
4.000
5.000
1.000
6.000
3.000
2.000
5.000
4.000
4.000
3.000
0.000
3.000
5.000
4.000
3.000
2.000
5.000
4.000
2.000
6.000
3.000
5.000
7.000
6.000
2.000
5.000
4.000
4.000
1.000
4.000
3.000
2.000
2.000
1.000
2.000
5.000
4.000
0.000
2.000
4.000
2.000
2.000
4.000
0.000
1.000
1.000
2.000
2.000
1.000
2.000
1.000
2.000
0.000
2.000
1.000
2.000
1.000
2.000
1.000
0.000
0.000
0.000
1.000
2.000
0.000
1.000
3.000
0.000
2.000
1.000
0.000
3.000
1.000
4.000
2.000
0.000
2.000
3.000
1.000
2.000
2.000
3.000
0.000
0.000
0.000
1.000
2.000
0.000
0.000
1.000
1.000
3.000
0.000
1.000
1.000
0.000
0.000
1.000
0.000
1.000
4.000
0.000
1.000
0.000
1.000
0.000
1.000
1.000
1.000
3.000
0.000
5.000
1.000
0.000
0.000
2.000
2.000
2.000
1.000
0.000
1.000
1.000
0.000
1.000
0.000
0.000
2.000
1.000
0.000
2.000
0.000
0.000
0.000
2.000
0.000
0.000
0.000
0.000
1.000
0.000
1.000
2.000
0.000
0.000
0.000
0.000
0.000
0.000
1.000
1.000
0.000
0.000
1.000
0.000
0.000
0.000
1.000
0.000
0.000
0.000
0.000
0.000
0.000
0.000
1.000
0.000
0.000
0.000
0.000
0.000
0.000
0.000
0.000
0.000
0.000
0.000
0.000
0.000
0.000
0.000
0.000
0.000
0.000
0.000
0.000
0.000
0.000
0.000
0.000
0.000
0.000
0.000
0.000
0.000
0.000
0.000
0.000
0.000
0.000
0.000
0.000
0.000
0.000
0.000
0.000
0.000
0.000
0.000
0.000
0.000
0.000
0.000
0.000
0.000
0.000
0.000
0.000
0.000
0.000
0.000
0.000
0.000
0.000
0.000
0.000
0.000
0.000
0.000
0.000
0.000
0.000
0.000
0.000
0.000
0.000
0.000
0.000
0.000
0.000
0.000
0.000
0.000
0.000
0.000
0.000
0.000
0.000
0.000
0.000
0.000
0.000
0.000
0.000
0.000
0.000
0.000
0.000
0.000
0.000
0.000
0.000
0.000
0.000
0.000
0.000
0.000
0.000
0.000
0.000
0.000
0.000
0.000
0.000
0.000
0.000
0.000
0.000
0.000
0.000
0.000
0.000
0.000
0.000
0.000
0.000
0.000
0.000
0.000
0.000
0.000
0.000
0.000
0.000
0.000
0.000
0.000
0.000
0.000
0.000
0.000
0.000
0.000
0.000
0.000
0.000
0.000
0.000
0.000
0.000
0.000
0.000
0.000
0.000
0.000
0.000
0.000
0.000
0.000
0.000
0.000
0.000
0.000
0.000
0.000
0.000
0.000
0.000
0.000
0.000
0.000
0.000
0.000
0.000
0.000
0.000
0.000
0.000
0.000
0.000
0.000
0.000
0.000
0.000
0.000
0.000
0.000
0.000
0.000
0.000
0.000
0.000
0.000
0.000
0.000
0.000
0.000
0.000
0.000
0.000
0.000
0.000
0.000
0.000
0.000
0.000
0.000
0.000
0.000
0.000
0.000
0.000
0.000
0.000
0.000
0.000
0.000
0.000
0.000
0.000
0.000
0.000
0.000
0.000
0.000
0.000
0.000
0.000
0.000
0.000
0.000
0.000
0.000
0.000
0.000
0.000
0.000
0.000
0.000
0.000
0.000
0.000
0.000
0.000
0.000
0.000
0.000
0.000
0.000
0.000
0.000
0.000
0.000
0.000
0.000
0.000
0.000
0.000
0.000
0.000
0.000
0.000
0.000
0.000
0.000
0.000
0.000
0.000
0.000
0.000
0.000
0.000
0.000
0.000
0.000
0.000
0.000
0.000
0.000
0.000
0.000
0.000
0.000
0.000
0.000
#ENDOFDATA   :